onset	duration	trial_type	rt	resp	gender	image_left	image_right
0.648535199987236	3.00130500001251	decision	1.5332750999950804	left	F	FF017.jpg	FF018.jpg
4.19887469999958	1.01631740000448	loss	n/a	n/a	n/a	FF017.jpg	FF018.jpg
11.1817608999845	3.00083480001194	decision	1.2830759000207763	right	F	FF035.jpg	FF036.jpg
14.7317282999866	1.00003749999451	win	n/a	n/a	n/a	FF035.jpg	FF036.jpg
21.6986063999939	3.00110459999996	decision	1.2832025999960024	right	F	FF021.jpg	FF022.jpg
25.2486749999807	1.00063670001691	loss	n/a	n/a	n/a	FF021.jpg	FF022.jpg
32.2153453000064	3.00148529998842	decision	1.282480800000485	left	M	MF025.jpg	MF026.jpg
35.7651266999892	1.00001260000863	loss	n/a	n/a	n/a	MF025.jpg	MF026.jpg
38.5317775000003	3.00102490000427	decision	1.0326900999934878	left	M	MF027.jpg	MF028.jpg
42.0818068999797	1.01662370000849	loss	n/a	n/a	n/a	MF027.jpg	MF028.jpg
44.8485584000009	3.00161399997887	decision	1.2841784000047483	right	M	MF023.jpg	MF024.jpg
48.3984513999894	1.01662490001763	win	n/a	n/a	n/a	MF023.jpg	MF024.jpg
51.181759900006	3.00104350000038	decision	1.5330566999909934	right	F	FF037.jpg	FF038.jpg
54.7317474999873	1.01673249999294	win	n/a	n/a	n/a	FF037.jpg	FF038.jpg
59.5984844999912	3.00100039999234	decision	1.5323158999963198	right	M	MF011.jpg	MF012.jpg
63.148371599993	1.01672889999463	loss	n/a	n/a	n/a	MF011.jpg	MF012.jpg
68.0317350999976	3.00191079999786	decision	1.0326904999965336	left	F	FF009.jpg	FF010.jpg
71.5816511999874	1.01663410000037	win	n/a	n/a	n/a	FF009.jpg	FF010.jpg
74.3654100999993	3.00140290000127	decision	1.2818811000033747	left	F	FF027.jpg	FF028.jpg
77.9150058999949	1.01667710000766	win	n/a	n/a	n/a	FF027.jpg	FF028.jpg
82.7983026999864	3.00146460000542	decision	1.5333082000142895	right	F	FF015.jpg	FF016.jpg
86.3483543999901	1.01750549999997	loss	n/a	n/a	n/a	FF015.jpg	FF016.jpg
93.3317476999946	3.00179159999243	decision	1.2837579000042751	left	M	MF029.jpg	MF030.jpg
96.8815809999942	1.00003180000931	loss	n/a	n/a	n/a	MF029.jpg	MF030.jpg
101.748793999985	3.00129990000278	decision	2.033243500016397	left	M	MF015.jpg	MF016.jpg
105.298305599979	1.00016570001026	win	n/a	n/a	n/a	MF015.jpg	MF016.jpg
112.264986399998	3.00182989999303	decision	1.2826849999837577	left	M	MF007.jpg	MF008.jpg
115.815001499985	1.01660220001941	win	n/a	n/a	n/a	MF007.jpg	MF008.jpg
120.681703499984	3.00116690000868	decision	1.5330979000136722	left	M	MF017.jpg	MF018.jpg
124.231672199996	1.01669140000013	win	n/a	n/a	n/a	MF017.jpg	MF018.jpg
127.0152772	3.29936410000664	decision	3.298809200001415	left	F	FF033.jpg	FF034.jpg
130.864992899995	1.00031219999073	win	n/a	n/a	n/a	FF033.jpg	FF034.jpg
133.631583499984	3.00056270000641	decision	2.8002024000161327	left	F	FF007.jpg	FF008.jpg
137.181629700004	1.00008709999383	loss	n/a	n/a	n/a	FF007.jpg	FF008.jpg
139.931701499998	3.00140799998189	decision	1.0327671999984886	right	F	FF023.jpg	FF024.jpg
143.481618399994	1.00008379999781	loss	n/a	n/a	n/a	FF023.jpg	FF024.jpg
156.748334799981	3.0012781000114	decision	1.5324478000111412	left	M	MF009.jpg	MF010.jpg
160.2982472	1.01664200000232	loss	n/a	n/a	n/a	MF009.jpg	MF010.jpg
165.165020899993	3.00115379999625	decision	1.2830137000128161	left	F	FF001.jpg	FF002.jpg
168.714582299988	1.00005520001287	win	n/a	n/a	n/a	FF001.jpg	FF002.jpg
171.481795300002	3.0008669999952	decision	1.2831595999887213	left	M	MF019.jpg	MF020.jpg
175.031574599998	1.01657800000976	loss	n/a	n/a	n/a	MF019.jpg	MF020.jpg
181.9982762	3.00167999998666	decision	1.2834963999921456	left	F	FF031.jpg	FF032.jpg
185.548120299994	1.00025350000942	loss	n/a	n/a	n/a	FF031.jpg	FF032.jpg
190.414763999986	3.00198349999846	decision	2.0328999000194017	right	M	MF005.jpg	MF006.jpg
193.964724399993	1.01661109999986	win	n/a	n/a	n/a	MF005.jpg	MF006.jpg
196.73157459998	3.00121480002417	decision	2.0322683000122197	left	F	FF019.jpg	FF020.jpg
200.281501299993	1.00001200000406	win	n/a	n/a	n/a	FF019.jpg	FF020.jpg
207.248152399989	3.00175600001239	decision	2.032708899991121	right	M	MF013.jpg	MF014.jpg
210.798250599997	1.0164867999847	loss	n/a	n/a	n/a	MF013.jpg	MF014.jpg
217.781609400001	3.00087379998877	decision	1.283196999982465	left	M	MF031.jpg	MF032.jpg
221.331395899993	1.01675539999269	loss	n/a	n/a	n/a	MF031.jpg	MF032.jpg
226.214954900002	3.00197439998738	decision	1.0329127000004519	left	F	FF039.jpg	FF040.jpg
229.764684299997	1.0168003999861	loss	n/a	n/a	n/a	FF039.jpg	FF040.jpg
232.531482099992	3.00105680001434	decision	1.2832725000043865	right	F	FF005.jpg	FF006.jpg
236.081395999994	1.00024180000764	loss	n/a	n/a	n/a	FF005.jpg	FF006.jpg
243.031452299998	3.00220200000331	decision	1.2839291999989655	left	M	MF037.jpg	MF038.jpg
246.581653600006	1.01627599998028	loss	n/a	n/a	n/a	MF037.jpg	MF038.jpg
249.3648407	3.00148169999011	decision	1.2829145999858156	left	M	MF039.jpg	MF040.jpg
252.914699799992	1.0000784000149	win	n/a	n/a	n/a	MF039.jpg	MF040.jpg
255.681362100004	3.00149579998106	decision	1.5331826999899931	left	M	MF033.jpg	MF034.jpg
259.231315699988	1.00004089999129	loss	n/a	n/a	n/a	MF033.jpg	MF034.jpg
261.981495799992	3.00171139999293	decision	1.5333894999930635	left	F	FF013.jpg	FF014.jpg
265.53148049998	1.01676769999904	win	n/a	n/a	n/a	FF013.jpg	FF014.jpg
270.398090400005	3.00156469998183	decision	2.2828819999995176	right	M	MF001.jpg	MF002.jpg
273.947942600003	1.01665159998811	win	n/a	n/a	n/a	MF001.jpg	MF002.jpg
276.731335599994	3.00155799998902	decision	1.5325260999961756	right	F	FF003.jpg	FF004.jpg
280.281248799991	1.0166920000047	win	n/a	n/a	n/a	FF003.jpg	FF004.jpg
285.164745199989	3.03757290000794	decision-missed	n/a	n/a	M	MF003.jpg	MF004.jpg
288.748227100004	1.01636149999104	win	n/a	n/a	n/a	MF003.jpg	MF004.jpg
