onset	duration	trial_type	rt	resp	gender	image_left	image_right
0.605132000055164	3.00172479997855	decision	2.532974399975501	left	D	DD017.jpg	DD018.jpg
4.1551512000151	1.01662450004369	loss	n/a	n/a	n/a	DD017.jpg	DD018.jpg
11.1215745999943	3.00094250007533	decision	2.282736200024374	right	D	DD035.jpg	DD036.jpg
14.6718885999871	1.01656220003497	win	n/a	n/a	n/a	DD035.jpg	DD036.jpg
21.6219562999904	3.00169710000046	decision	1.7838031999999657	left	D	DD021.jpg	DD022.jpg
25.1719943999778	1.01653490005992	loss	n/a	n/a	n/a	DD021.jpg	DD022.jpg
32.1218266000506	3.00158829998691	decision	2.0326755000278354	right	S	SD025.jpg	SD026.jpg
35.6721775999758	1.01620559999719	loss	n/a	n/a	n/a	SD025.jpg	SD026.jpg
38.4218540000729	3.00159659993369	decision	2.282869499991648	right	S	SD027.jpg	SD028.jpg
41.9718772000633	1.00095799996052	loss	n/a	n/a	n/a	SD027.jpg	SD028.jpg
44.7054514000192	3.00060250004753	decision	1.7831764000002295	left	S	SD023.jpg	SD024.jpg
48.2553722000448	1.00024399999529	win	n/a	n/a	n/a	SD023.jpg	SD024.jpg
50.9887900999747	3.03771010006312	decision-missed	n/a	n/a	D	DD037.jpg	DD038.jpg
54.5723703000695	1.01630019990262	win	n/a	n/a	n/a	DD037.jpg	DD038.jpg
59.4220416999888	3.00173430005088	decision	2.050856300047599	left	S	SD011.jpg	SD012.jpg
62.9733358999947	1.01564340002369	loss	n/a	n/a	n/a	SD011.jpg	SD012.jpg
67.8055858999724	3.00125540001318	decision	2.0325523000210524	right	D	DD009.jpg	DD010.jpg
71.3558654000517	1.0000837999396	win	n/a	n/a	n/a	DD009.jpg	DD010.jpg
74.072470700019	3.00079700001515	decision	2.0334072000114247	right	D	DD027.jpg	DD028.jpg
77.6225719000213	1.0164695000276	win	n/a	n/a	n/a	DD027.jpg	DD028.jpg
82.472859099973	3.0010357000865	decision	1.782372200046666	left	D	DD015.jpg	DD016.jpg
86.0225212000078	1.01686620002147	loss	n/a	n/a	n/a	DD015.jpg	DD016.jpg
92.9726149999769	3.00094669999089	decision	1.283317800029181	right	S	SD029.jpg	SD030.jpg
96.5227642999962	1.01670510007534	loss	n/a	n/a	n/a	SD029.jpg	SD030.jpg
101.355959100067	3.00083829998039	decision	2.033320999937132	left	S	SD015.jpg	SD016.jpg
104.906197100063	1.01638309995178	win	n/a	n/a	n/a	SD015.jpg	SD016.jpg
111.839644400054	3.00168829993345	decision	1.2827948000049219	right	S	SD007.jpg	SD008.jpg
115.38948360004	1.00000829994678	win	n/a	n/a	n/a	SD007.jpg	SD008.jpg
120.222988400026	3.00090720003936	decision	2.2832622999558225	left	S	SD017.jpg	SD018.jpg
123.773729100008	1.01585229998454	win	n/a	n/a	n/a	SD017.jpg	SD018.jpg
126.523193900008	3.00173979997635	decision	1.2825365000171587	left	D	DD033.jpg	DD034.jpg
130.072844200069	1.00038330000825	win	n/a	n/a	n/a	DD033.jpg	DD034.jpg
132.806624100078	3.00121279992163	decision	2.032769599929452	left	D	DD007.jpg	DD008.jpg
136.356558099971	1.01645860006101	loss	n/a	n/a	n/a	DD007.jpg	DD008.jpg
139.08962990006	3.00067330000456	decision	2.5501398999476805	right	D	DD023.jpg	DD024.jpg
142.639821100049	1.00094679999165	loss	n/a	n/a	n/a	DD023.jpg	DD024.jpg
155.87351569999	3.00163690000772	decision	2.5338319999864325	left	S	SD009.jpg	SD010.jpg
159.423395800055	1.016672299942	loss	n/a	n/a	n/a	SD009.jpg	SD010.jpg
164.273959500017	3.00070620002225	decision	1.7825696000363678	right	D	DD001.jpg	DD002.jpg
167.823513800045	1.01661880000029	win	n/a	n/a	n/a	DD001.jpg	DD002.jpg
170.590100200032	3.00171480001882	decision	2.282569200033322	right	S	SD019.jpg	SD020.jpg
174.140101399971	1.00020990008488	loss	n/a	n/a	n/a	SD019.jpg	SD020.jpg
181.090072300052	3.03626329998951	decision-missed	n/a	n/a	D	DD031.jpg	DD032.jpg
184.673528300016	1.0165184000507	loss	n/a	n/a	n/a	DD031.jpg	DD032.jpg
189.506801499985	3.00139590003528	decision	1.2831552000716329	right	S	SD005.jpg	SD006.jpg
193.056978099979	1.01706330000889	win	n/a	n/a	n/a	SD005.jpg	SD006.jpg
195.823480700026	3.00071940000635	decision	1.783066499978304	left	D	DD019.jpg	DD020.jpg
199.373880399973	1.01633790007327	win	n/a	n/a	n/a	DD019.jpg	DD020.jpg
206.307081400068	3.00118579994887	decision	1.7824265999952331	left	S	SD013.jpg	SD014.jpg
209.857276599971	1.0164655999979	loss	n/a	n/a	n/a	SD013.jpg	SD014.jpg
216.7907289	3.00127280002926	decision	1.7831146999960765	left	S	SD031.jpg	SD032.jpg
220.340975900064	1.01644809998106	loss	n/a	n/a	n/a	SD031.jpg	SD032.jpg
225.190738099976	3.00161160004791	decision	1.5333704000804573	right	D	DD039.jpg	DD040.jpg
228.740774000064	1.01670209993608	loss	n/a	n/a	n/a	DD039.jpg	DD040.jpg
231.507381199975	3.00159960007295	decision	1.783867200021632	right	D	DD005.jpg	DD006.jpg
235.057415900053	1.00014889996964	loss	n/a	n/a	n/a	DD005.jpg	DD006.jpg
241.990755700041	3.03901419998147	decision-missed	n/a	n/a	S	SD037.jpg	SD038.jpg
245.574348900001	1.01610050001182	loss	n/a	n/a	n/a	SD037.jpg	SD038.jpg
248.324169700034	3.00111469998956	decision	1.5333997999550775	left	S	SD039.jpg	SD040.jpg
251.874273000052	1.00006629992276	win	n/a	n/a	n/a	SD039.jpg	SD040.jpg
254.607662199996	3.00112000002991	decision	1.532674100017175	right	S	SD033.jpg	SD034.jpg
258.157525700051	1.01669059996493	loss	n/a	n/a	n/a	SD033.jpg	SD034.jpg
260.907797000022	3.00205270003062	decision	1.2823982000118122	left	D	DD013.jpg	DD014.jpg
264.457503900048	1.00083129992709	win	n/a	n/a	n/a	DD013.jpg	DD014.jpg
269.274841499981	3.00069330004044	decision	2.0320398000767455	left	S	SD001.jpg	SD002.jpg
272.824484299985	1.00011500006076	win	n/a	n/a	n/a	SD001.jpg	SD002.jpg
275.558087500045	3.00018309999723	decision	1.7825022999895737	right	D	DD003.jpg	DD004.jpg
279.107864300022	1.00020410004072	win	n/a	n/a	n/a	DD003.jpg	DD004.jpg
283.924753300031	3.00176599994302	decision	1.7836926999734715	left	S	SD003.jpg	SD004.jpg
287.474770699977	1.01662490004674	win	n/a	n/a	n/a	SD003.jpg	SD004.jpg
294.407924100058	3.00135179993231	decision	1.7825595999602228	left	D	DD025.jpg	DD026.jpg
297.958205400035	1.0166343000019	win	n/a	n/a	n/a	DD025.jpg	DD026.jpg
304.908649099991	3.00008420005906	decision	1.7830454000504687	right	S	SD035.jpg	SD036.jpg
308.458254800062	1.00001720001455	win	n/a	n/a	n/a	SD035.jpg	SD036.jpg
311.191737100016	3.00127729994711	decision	2.2827410000609234	right	D	DD011.jpg	DD012.jpg
314.741442600032	1.00003420002759	loss	n/a	n/a	n/a	DD011.jpg	DD012.jpg
317.475166200078	3.0012366999872	decision	1.7822656999342144	left	S	SD021.jpg	SD022.jpg
321.024761300068	1.00009319989476	win	n/a	n/a	n/a	SD021.jpg	SD022.jpg
325.858918500016	2.99995199998375	decision	2.033041500020772	left	D	DD029.jpg	DD030.jpg
329.408252699999	1.0002352000447	loss	n/a	n/a	n/a	DD029.jpg	DD030.jpg
