onset	duration	trial_type	rt	resp	gender	image_left	image_right
0.612891600001603	3.00133070000447	decision	1.78254219994415	left	D	DD017.jpg	DD018.jpg
4.1627760999836	1.000204400043	loss	NaN	n/a	n/a	DD017.jpg	DD018.jpg
11.0964425000129	3.0011525999289	decision	1.28243299992755	right	D	DD035.jpg	DD036.jpg
14.6464905999601	1.01672489999328	win	NaN	n/a	n/a	DD035.jpg	DD036.jpg
21.5966032999568	3.001162200002	decision	1.03235019999556	left	D	DD021.jpg	DD022.jpg
25.1466178999981	1.00001299998257	loss	NaN	n/a	n/a	DD021.jpg	DD022.jpg
32.0634797000093	3.00142729992513	decision	1.28287250001449	right	S	SD025.jpg	SD026.jpg
35.6134346999461	1.01680860004853	loss	NaN	n/a	n/a	SD025.jpg	SD026.jpg
38.3632365999511	3.0011987000471	decision	1.28365080000367	right	S	SD027.jpg	SD028.jpg
41.9133230999578	1.00015460001305	loss	NaN	n/a	n/a	SD027.jpg	SD028.jpg
44.6300470000133	3.00113170000259	decision	1.28349439997692	right	S	SD023.jpg	SD024.jpg
48.17984170001	1.016736999969	win	NaN	n/a	n/a	SD023.jpg	SD024.jpg
50.9299376999261	3.00183690001722	decision	1.03257180005312	left	D	DD037.jpg	DD038.jpg
54.4799793999409	1.00032059999648	win	NaN	n/a	n/a	DD037.jpg	DD038.jpg
59.3136258999584	3.00105010007974	decision	1.03329070005566	left	S	SD011.jpg	SD012.jpg
62.8635967000155	1.00010059995111	loss	NaN	n/a	n/a	SD011.jpg	SD012.jpg
67.6805322000291	3.0011996999383	decision	1.03330469992943	right	D	DD009.jpg	DD010.jpg
71.230466100038	1.00003399990965	win	NaN	n/a	n/a	DD009.jpg	DD010.jpg
73.9472911999328	3.00127110001631	decision	1.28234060003888	left	D	DD027.jpg	DD028.jpg
77.4972550999373	1.01659710006788	win	NaN	n/a	n/a	DD027.jpg	DD028.jpg
82.347305299947	3.00118790008128	decision	1.03245300007984	right	D	DD015.jpg	DD016.jpg
85.8973558000289	1.00000269990414	loss	NaN	n/a	n/a	DD015.jpg	DD016.jpg
92.8308243999491	3.00121230003424	decision	1.04339910007548	left	S	SD029.jpg	SD030.jpg
96.38033179997	1.00044029997662	loss	NaN	n/a	n/a	SD029.jpg	SD030.jpg
101.19759919995	3.00171840004623	decision	1.03236690000631	right	S	SD015.jpg	SD016.jpg
104.747610799968	1.01639340003021	win	NaN	n/a	n/a	SD015.jpg	SD016.jpg
111.680813399958	3.00220180000179	decision	1.03281500004232	left	S	SD007.jpg	SD008.jpg
115.231083399965	1.01661519997288	win	NaN	n/a	n/a	SD007.jpg	SD008.jpg
120.081022199942	3.00120210007299	decision	1.28316720004659	right	S	SD017.jpg	SD018.jpg
123.631060799933	1.00010800000746	win	NaN	n/a	n/a	SD017.jpg	SD018.jpg
126.364620100008	3.0007929999847	decision	1.28201119997539	left	D	DD033.jpg	DD034.jpg
129.914639599971	1.01688340003602	win	NaN	n/a	n/a	DD033.jpg	DD034.jpg
132.664737700019	3.0015336999204	decision	1.28276229999028	left	D	DD007.jpg	DD008.jpg
136.214383899933	1.00025630008895	loss	NaN	n/a	n/a	DD007.jpg	DD008.jpg
138.930917799938	3.00174410000909	decision	1.28274639998563	right	D	DD023.jpg	DD024.jpg
142.481318000006	1.0000031000236	loss	NaN	n/a	n/a	DD023.jpg	DD024.jpg
155.715049499995	3.00121749995742	decision	1.03269080002792	left	S	SD009.jpg	SD010.jpg
159.264846100006	1.01649750000797	loss	NaN	n/a	n/a	SD009.jpg	SD010.jpg
164.098422099953	3.00180099997669	decision	1.03292000002693	right	D	DD001.jpg	DD002.jpg
167.648349900031	1.01661309995688	win	NaN	n/a	n/a	DD001.jpg	DD002.jpg
170.415091800038	3.00081739993766	decision	1.03221679991111	left	S	SD019.jpg	SD020.jpg
173.965070200036	1.00001209997572	loss	NaN	n/a	n/a	SD019.jpg	SD020.jpg
180.898592700018	3.00096249999478	decision	1.03343109996058	left	D	DD031.jpg	DD032.jpg
184.448513199924	1.01667320006527	loss	NaN	n/a	n/a	DD031.jpg	DD032.jpg
189.282083399943	3.00099060009234	decision	1.03223270003218	right	S	SD005.jpg	SD006.jpg
192.83176770003	1.00042279995978	win	NaN	n/a	n/a	SD005.jpg	SD006.jpg
195.582151199924	3.00236520008184	decision	1.53270620002877	right	D	DD019.jpg	DD020.jpg
199.131575300009	1.00020419992507	win	NaN	n/a	n/a	DD019.jpg	DD020.jpg
206.048950499971	3.0013992000604	decision	1.03282369999215	right	S	SD013.jpg	SD014.jpg
209.598772399942	1.01670949999243	loss	NaN	n/a	n/a	SD013.jpg	SD014.jpg
216.532470299979	3.00151820003521	decision	1.0322161000222	left	S	SD031.jpg	SD032.jpg
220.082014699932	1.00011000002269	loss	NaN	n/a	n/a	SD031.jpg	SD032.jpg
224.899095000001	3.0010445000371	decision	1.03233419999015	right	D	DD039.jpg	DD040.jpg
228.448907500017	1.00010800000746	loss	NaN	n/a	n/a	DD039.jpg	DD040.jpg
231.182486900012	3.00187459995504	decision	1.03339969995432	right	D	DD005.jpg	DD006.jpg
234.732278599986	1.00011919997633	loss	NaN	n/a	n/a	DD005.jpg	DD006.jpg
241.666185499984	3.00082690001	decision	1.03210389998276	left	S	SD037.jpg	SD038.jpg
245.215466100024	1.00021450000349	loss	NaN	n/a	n/a	SD037.jpg	SD038.jpg
247.932661399944	3.00114509998821	decision	1.03364979999606	right	S	SD039.jpg	SD040.jpg
251.482637799927	1.01664970000274	win	NaN	n/a	n/a	SD039.jpg	SD040.jpg
254.216126799933	3.00146669999231	decision	1.2827747000847	right	S	SD033.jpg	SD034.jpg
257.766043299926	1.00004860002082	loss	NaN	n/a	n/a	SD033.jpg	SD034.jpg
260.499538299977	3.00106809998397	decision	1.03234270005487	right	D	DD013.jpg	DD014.jpg
264.049217600026	1.00022059993353	win	NaN	n/a	n/a	DD013.jpg	DD014.jpg
268.866202899953	3.00113500002772	decision	1.28239489998668	right	S	SD001.jpg	SD002.jpg
272.416232699994	1.01641809998546	win	NaN	n/a	n/a	SD001.jpg	SD002.jpg
275.166374400025	3.00096490001306	decision	1.28227649990004	right	D	DD003.jpg	DD004.jpg
278.716493799933	1.01642600004561	win	NaN	n/a	n/a	DD003.jpg	DD004.jpg
283.549770899932	3.00160200009122	decision	1.03232850006316	right	S	SD003.jpg	SD004.jpg
287.09946009994	1.00002210005186	win	NaN	n/a	n/a	SD003.jpg	SD004.jpg
294.016525999992	3.00139670004137	decision	1.03232759993989	right	D	DD025.jpg	DD026.jpg
297.566492400016	1.00003220001236	win	NaN	n/a	n/a	DD025.jpg	DD026.jpg
304.499967299984	3.0005119999405	decision	1.03307879995555	right	S	SD035.jpg	SD036.jpg
308.049954699934	1.01640150009189	win	NaN	n/a	n/a	SD035.jpg	SD036.jpg
310.800164000015	3.0014270999236	decision	1.03328450000845	right	D	DD011.jpg	DD012.jpg
314.350071999943	1.01660820003599	loss	NaN	n/a	n/a	DD011.jpg	DD012.jpg
317.100295800017	3.0012001999421	decision	1.03217969997786	left	S	SD021.jpg	SD022.jpg
320.650217399932	1.01630750007462	win	NaN	n/a	n/a	SD021.jpg	SD022.jpg
325.483535100007	3.00194380001631	decision	1.0323840000201	left	D	DD029.jpg	DD030.jpg
329.033492599963	1.01670849998482	loss	NaN	n/a	n/a	DD029.jpg	DD030.jpg
