onset	duration	trial_type	rt	resp	gender	image_left	image_right
0.692136700032279	3.00215929996921	decision	1.78336100000888	left	S	SD001.jpg	SD002.jpg
4.24221210001269	1.01664129999699	win	NaN	n/a	n/a	SD001.jpg	SD002.jpg
11.1923104000161	3.00102570001036	decision	1.78209589998005	left	S	SD003.jpg	SD004.jpg
14.7419906000141	1.00023210002109	loss	NaN	n/a	n/a	SD003.jpg	SD004.jpg
17.475696700043	3.00116339995293	decision	1.53290109999944	right	S	SD005.jpg	SD006.jpg
21.0256253000116	1.00001989997691	win	NaN	n/a	n/a	SD005.jpg	SD006.jpg
23.7591382000246	3.00084079999942	decision	1.78325759997824	right	D	DD001.jpg	DD002.jpg
27.3090718000312	1.00005099998089	win	NaN	n/a	n/a	DD001.jpg	DD002.jpg
32.1422320000129	3.00152069999604	decision	2.03331389999948	right	D	DD003.jpg	DD004.jpg
35.6924554000143	1.00000090000685	loss	NaN	n/a	n/a	DD003.jpg	DD004.jpg
42.6092791000265	3.00143369997386	decision	1.28241449996131	right	S	SD007.jpg	SD008.jpg
46.1592622000026	1.00001700001303	loss	NaN	n/a	n/a	SD007.jpg	SD008.jpg
50.9927592999884	3.00211090000812	decision	1.28293060004944	right	S	SD009.jpg	SD010.jpg
54.5423124000081	1.00036100001307	win	NaN	n/a	n/a	SD009.jpg	SD010.jpg
59.4593332000077	3.00079890002962	decision	1.28310280002188	right	D	DD005.jpg	DD006.jpg
63.0094534000382	1.01663719996577	loss	NaN	n/a	n/a	DD005.jpg	DD006.jpg
65.7595922999899	3.00075639999704	decision	1.28301190002821	right	D	DD007.jpg	DD008.jpg
69.3094996000291	1.01669759996003	win	NaN	n/a	n/a	DD007.jpg	DD008.jpg
72.0594478000421	3.00136459997157	decision	1.53211699996609	left	D	DD009.jpg	DD010.jpg
75.6094938000315	1.00005119998241	win	NaN	n/a	n/a	DD009.jpg	DD010.jpg
78.3430253000115	3.00168940000003	decision	1.78384930000175	left	D	DD011.jpg	DD012.jpg
81.8929258999997	1.00001590000466	loss	NaN	n/a	n/a	DD011.jpg	DD012.jpg
86.7264198000194	3.00110019999556	decision	1.2830479000113	left	S	SD011.jpg	SD012.jpg
90.2764211000176	1.01639940001769	loss	NaN	n/a	n/a	SD011.jpg	SD012.jpg
93.0262134000077	3.00148799997987	decision	1.53360820002854	right	S	SD013.jpg	SD014.jpg
96.576365099987	1.00000250001904	win	NaN	n/a	n/a	SD013.jpg	SD014.jpg
103.509985800018	3.00253110000631	decision	1.28297320002457	left	S	SD015.jpg	SD016.jpg
107.059889200027	1.00003009999637	win	NaN	n/a	n/a	SD015.jpg	SD016.jpg
109.793423800031	2.9999947999604	decision	1.28303250001045	left	D	DD013.jpg	DD014.jpg
113.34304940002	1.00043650000589	win	NaN	n/a	n/a	DD013.jpg	DD014.jpg
120.276746699994	3.00097710004775	decision	1.78362689999631	right	S	SD017.jpg	SD018.jpg
123.826503299992	1.00017960002879	win	NaN	n/a	n/a	SD017.jpg	SD018.jpg
128.676835699996	3.00052900001174	decision	1.78227510000579	left	D	DD015.jpg	DD016.jpg
132.226808200008	1.01645860000281	win	NaN	n/a	n/a	DD015.jpg	DD016.jpg
137.093503499986	3.0013076000032	decision	1.53304190002382	left	S	SD019.jpg	SD020.jpg
140.643513899995	1.00000709999586	win	NaN	n/a	n/a	SD019.jpg	SD020.jpg
145.477029400005	3.00013370002853	decision	2.03312290000031	right	D	DD017.jpg	DD018.jpg
149.026921499986	1.00005980004789	win	NaN	n/a	n/a	DD017.jpg	DD018.jpg
162.343680699996	3.0013798000291	decision	1.53345990000525	left	S	SD021.jpg	SD022.jpg
165.893841599987	1.01668749999953	loss	NaN	n/a	n/a	SD021.jpg	SD022.jpg
172.827446300013	3.00240569998277	decision	1.78180509997765	left	S	SD023.jpg	SD024.jpg
176.377082700026	1.00008520000847	win	NaN	n/a	n/a	SD023.jpg	SD024.jpg
183.293850700022	3.00013930001296	decision	2.28417469997657	left	S	SD025.jpg	SD026.jpg
186.844052400033	1.0165907999617	loss	NaN	n/a	n/a	SD025.jpg	SD026.jpg
191.694132500037	3.00223399995593	decision	1.78294959996128	right	S	SD027.jpg	SD028.jpg
195.243989899987	1.01651800004765	loss	NaN	n/a	n/a	SD027.jpg	SD028.jpg
198.010851800034	3.00021849997574	decision	1.28233829996316	right	D	DD019.jpg	DD020.jpg
201.560779599997	1.01665430003777	loss	NaN	n/a	n/a	DD019.jpg	DD020.jpg
204.310948700004	3.00115239998559	decision	1.03234050003812	right	D	DD021.jpg	DD022.jpg
207.860641300038	1.00007959996583	win	NaN	n/a	n/a	DD021.jpg	DD022.jpg
214.794920900022	3.00182359997416	decision	1.5325739000109	left	S	SD029.jpg	SD030.jpg
218.344109700003	1.00017760001356	loss	NaN	n/a	n/a	SD029.jpg	SD030.jpg
225.277881400019	3.00146699999459	decision	1.0337849999778	left	S	SD031.jpg	SD032.jpg
228.827713900013	1.01670470001409	win	NaN	n/a	n/a	SD031.jpg	SD032.jpg
233.677536600037	3.00104329996975	decision	1.28421019995585	right	D	DD023.jpg	DD024.jpg
237.227791499987	1.01669390004827	loss	NaN	n/a	n/a	DD023.jpg	DD024.jpg
239.961259400006	3.00174879998667	decision	1.03367829998024	left	D	DD025.jpg	DD026.jpg
243.51124110003	1.01656229997752	win	NaN	n/a	n/a	DD025.jpg	DD026.jpg
248.344712399994	3.00130410003476	decision	1.28298870002618	left	D	DD027.jpg	DD028.jpg
251.894614699995	1.00001790001988	loss	NaN	n/a	n/a	DD027.jpg	DD028.jpg
254.627811599988	3.00047349999659	decision	1.5342238000012	left	S	SD033.jpg	SD034.jpg
258.178005099995	1.01664500002516	loss	NaN	n/a	n/a	SD033.jpg	SD034.jpg
260.928173099994	3.00079720001668	decision	1.28232280001976	right	S	SD035.jpg	SD036.jpg
264.478074199986	1.0165665000095	loss	NaN	n/a	n/a	SD035.jpg	SD036.jpg
267.228213900002	3.00088260002667	decision	1.03421120002167	right	S	SD037.jpg	SD038.jpg
270.777964800014	1.00016719999257	win	NaN	n/a	n/a	SD037.jpg	SD038.jpg
277.711625800002	3.0015151000116	decision	1.28387390001444	left	D	DD029.jpg	DD030.jpg
281.261655100039	1.01631379994797	loss	NaN	n/a	n/a	DD029.jpg	DD030.jpg
284.011562700034	3.00009980000323	decision	1.03320099995472	left	D	DD031.jpg	DD032.jpg
287.561642199988	1.00001170003088	loss	NaN	n/a	n/a	DD031.jpg	DD032.jpg
292.395157299994	3.00115100003313	decision	1.03346870001405	left	D	DD033.jpg	DD034.jpg
295.945185700024	1.01640119997319	win	NaN	n/a	n/a	DD033.jpg	DD034.jpg
302.895231800037	3.00109449995216	decision	1.03253839997342	left	S	SD039.jpg	SD040.jpg
306.44487539999	1.00030380004318	loss	NaN	n/a	n/a	SD039.jpg	SD040.jpg
313.395308999985	3.00103890005266	decision	1.03225270000985	left	D	DD035.jpg	DD036.jpg
316.945260400011	1.01648360001855	win	NaN	n/a	n/a	DD035.jpg	DD036.jpg
319.695360400015	3.00018690002616	decision	1.03226720000384	left	D	DD037.jpg	DD038.jpg
323.245079500019	0.999999399995431	loss	NaN	n/a	n/a	DD037.jpg	DD038.jpg
325.978771199996	3.0007265000022	decision	1.03309480001917	left	D	DD039.jpg	DD040.jpg
329.528501800029	1.00002029997995	loss	NaN	n/a	n/a	DD039.jpg	DD040.jpg
