onset	duration	trial_type	rt	resp	gender	image_left	image_right
0.652947099995799	3.00273420003941	decision	1.5327185000060126	left	F	FF017.jpg	FF018.jpg
4.20325319998665	1.01659480005037	loss	n/a	n/a	n/a	FF017.jpg	FF018.jpg
11.203443800041	3.00102489994606	decision	1.533649199991487	right	F	FF035.jpg	FF036.jpg
14.7531645999989	1.00020599999698	win	n/a	n/a	n/a	FF035.jpg	FF036.jpg
21.7534875000129	3.00147189997369	decision	1.7825641999952495	right	F	FF021.jpg	FF022.jpg
25.303292000026	1.0007145999698	loss	n/a	n/a	n/a	FF021.jpg	FF022.jpg
32.2702720999951	3.0015282999957	decision	1.7831598999910057	right	M	MF025.jpg	MF026.jpg
35.8200450000004	1.01706610003021	loss	n/a	n/a	n/a	MF025.jpg	MF026.jpg
38.6036015999853	3.00044460000936	decision	1.7822791000362486	right	M	MF027.jpg	MF028.jpg
42.1535971999983	1.01669870002661	loss	n/a	n/a	n/a	MF027.jpg	MF028.jpg
45.0375717999996	3.00124270003289	decision	2.0316325000021607	left	M	MF023.jpg	MF024.jpg
48.5868717000121	1.0163924000226	win	n/a	n/a	n/a	MF023.jpg	MF024.jpg
51.3704139000038	3.00063710001996	decision	1.7836359000066295	right	F	FF037.jpg	FF038.jpg
54.9199903000263	1.00031099998159	win	n/a	n/a	n/a	FF037.jpg	FF038.jpg
59.7871186000411	3.00036079995334	decision	1.783161899948027	left	M	MF011.jpg	MF012.jpg
63.3369819000363	1.00016619998496	loss	n/a	n/a	n/a	MF011.jpg	MF012.jpg
68.2039537000237	3.00119579996681	decision	1.7831315000075847	right	F	FF009.jpg	FF010.jpg
71.7538728000363	1.01670159999048	win	n/a	n/a	n/a	FF009.jpg	FF010.jpg
74.5371429999941	3.00141100003384	decision	2.2845637000282295	left	F	FF027.jpg	FF028.jpg
78.0873238000204	1.01666570000816	win	n/a	n/a	n/a	FF027.jpg	FF028.jpg
83.0705251999898	3.05075520003447	decision	3.0501689000520855	left	F	FF015.jpg	FF016.jpg
86.6713613999891	1.01603660004912	loss	n/a	n/a	n/a	FF015.jpg	FF016.jpg
93.6541370000341	3.001743300003	decision	2.0334271999890916	right	M	MF029.jpg	MF030.jpg
97.204366800026	1.0162034999812	loss	n/a	n/a	n/a	MF029.jpg	MF030.jpg
102.08765880001	3.00169320002897	decision	1.7828516000299715	left	M	MF015.jpg	MF016.jpg
105.637660800014	1.01619880000362	win	n/a	n/a	n/a	MF015.jpg	MF016.jpg
112.720917800034	3.00044929998694	decision	1.7831246999558061	left	M	MF007.jpg	MF008.jpg
116.270885100006	1.01651089999359	win	n/a	n/a	n/a	MF007.jpg	MF008.jpg
121.154415600002	3.00160140002845	decision	2.03288260003319	right	M	MF017.jpg	MF018.jpg
124.704006100015	1.00041490001604	win	n/a	n/a	n/a	MF017.jpg	MF018.jpg
127.471337100025	3.00118570000632	decision	1.781814799993299	right	F	FF033.jpg	FF034.jpg
131.021063900029	1.00003379996633	win	n/a	n/a	n/a	FF033.jpg	FF034.jpg
133.837847499992	3.00126320001436	decision	1.7825590000138618	right	F	FF007.jpg	FF008.jpg
137.387699200015	1.00009410001803	loss	n/a	n/a	n/a	FF007.jpg	FF008.jpg
140.154601300019	3.00105239998084	decision	2.032677599985618	left	F	FF023.jpg	FF024.jpg
143.704590000038	1.01636739994865	loss	n/a	n/a	n/a	FF023.jpg	FF024.jpg
156.988071300031	3.00189019995742	decision	2.0323920999653637	left	M	MF009.jpg	MF010.jpg
160.537876699993	1.00027700001374	loss	n/a	n/a	n/a	MF009.jpg	MF010.jpg
165.404599500005	3.0008181000012	decision	2.284944600018207	left	F	FF001.jpg	FF002.jpg
168.954702000017	1.00016469997354	win	n/a	n/a	n/a	FF001.jpg	FF002.jpg
171.721520600026	3.00187420001021	decision	1.7832644999725744	right	M	MF019.jpg	MF020.jpg
175.271463399986	1.01667540002381	loss	n/a	n/a	n/a	MF019.jpg	MF020.jpg
182.254866000032	3.00137549999636	decision	1.7836016999790445	left	F	FF031.jpg	FF032.jpg
185.804852200032	1.00038359995233	loss	n/a	n/a	n/a	FF031.jpg	FF032.jpg
190.671705399989	3.00010170001769	decision	1.5321992000099272	right	M	MF005.jpg	MF006.jpg
194.2213185	1.00019799999427	win	n/a	n/a	n/a	MF005.jpg	MF006.jpg
196.988409000041	3.03771979996236	decision-missed	n/a	n/a	F	FF019.jpg	FF020.jpg
200.571413099999	1.00002229999518	win	n/a	n/a	n/a	FF019.jpg	FF020.jpg
207.538317400031	3.0015393999638	decision	1.2831553999567404	left	M	MF013.jpg	MF014.jpg
211.088484900014	1.01667219999945	loss	n/a	n/a	n/a	MF013.jpg	MF014.jpg
218.071834400005	3.0011370999855	decision	1.0323003000230528	right	M	MF031.jpg	MF032.jpg
221.621878900041	1.01622449996648	loss	n/a	n/a	n/a	MF031.jpg	MF032.jpg
226.505024600017	3.00182740000309	decision	1.0328228999860585	left	F	FF039.jpg	FF040.jpg
230.055361600011	1.01668080000672	loss	n/a	n/a	n/a	FF039.jpg	FF040.jpg
232.838621600007	3.00118870002916	decision	1.032370999979321	right	F	FF005.jpg	FF006.jpg
236.38838150003	1.00005729997065	loss	n/a	n/a	n/a	FF005.jpg	FF006.jpg
243.355212100025	3.00119019998237	decision	1.7835530000156723	right	M	MF037.jpg	MF038.jpg
246.905421200034	1.01628359995084	loss	n/a	n/a	n/a	MF037.jpg	MF038.jpg
249.688703000022	3.00081749999663	decision	1.2837815000093542	left	M	MF039.jpg	MF040.jpg
253.238464299997	1.00019150000298	win	n/a	n/a	n/a	MF039.jpg	MF040.jpg
256.005738799984	3.00017090002075	decision	1.7835104000405408	left	M	MF033.jpg	MF034.jpg
259.555755200039	1.0162430999917	loss	n/a	n/a	n/a	MF033.jpg	MF034.jpg
262.33882579999	3.00015860004351	decision	1.7830990999937057	right	F	FF013.jpg	FF014.jpg
265.888558300037	1.00027339998633	win	n/a	n/a	n/a	FF013.jpg	FF014.jpg
270.755740099994	3.00165740004741	decision	1.5494321000296623	right	M	MF001.jpg	MF002.jpg
274.305637600017	1.00008299999172	win	n/a	n/a	n/a	MF001.jpg	MF002.jpg
277.072467299993	3.00129690003814	decision	1.5340779999969527	right	F	FF003.jpg	FF004.jpg
280.622400399996	1.00001439999323	win	n/a	n/a	n/a	FF003.jpg	FF004.jpg
285.488807999995	3.00064650003333	decision	2.800158800033387	left	M	MF003.jpg	MF004.jpg
289.039466499991	1.01651420001872	win	n/a	n/a	n/a	MF003.jpg	MF004.jpg
296.022204999987	3.00056060001953	decision	1.7846124000498094	right	F	FF025.jpg	FF026.jpg
299.57229109999	1.00000050000381	win	n/a	n/a	n/a	FF025.jpg	FF026.jpg
306.539342600037	3.00185489997966	decision	1.78397779999068	right	M	MF035.jpg	MF036.jpg
310.089360399987	1.01666670001578	win	n/a	n/a	n/a	MF035.jpg	MF036.jpg
312.872714600002	3.00091100001009	decision	2.2832033000304364	left	F	FF011.jpg	FF012.jpg
316.422737699992	1.01631360000465	loss	n/a	n/a	n/a	FF011.jpg	FF012.jpg
319.222837899986	3.00104520004243	decision	2.0336311000282876	left	M	MF021.jpg	MF022.jpg
322.772436300002	1.00015790003818	win	n/a	n/a	n/a	MF021.jpg	MF022.jpg
327.63944140001	3.00141199998325	decision	1.5326617999817245	left	F	FF029.jpg	FF030.jpg
331.189673900022	1.00000930001261	loss	n/a	n/a	n/a	FF029.jpg	FF030.jpg
