onset	duration	trial_type	rt	resp	gender	image_left	image_right
0.605844700010493	3.00281939998968	decision	1.28295759996399	left	D	DD017.jpg	DD018.jpg
4.15590549999615	1.01641119999113	loss	NaN	n/a	n/a	DD017.jpg	DD018.jpg
11.1225409000181	3.00142909999704	decision	1.03338689997327	right	D	DD035.jpg	DD036.jpg
14.6725675999769	1.01679940003669	win	NaN	n/a	n/a	DD035.jpg	DD036.jpg
21.6223823999753	3.001245499996	decision	1.53341989999171	right	D	DD021.jpg	DD022.jpg
25.1724671999691	1.00024040002609	loss	NaN	n/a	n/a	DD021.jpg	DD022.jpg
32.1056463000132	3.00172489997931	decision	1.53377569996519	left	S	SD025.jpg	SD026.jpg
35.656019099988	1.01672980003059	loss	NaN	n/a	n/a	SD025.jpg	SD026.jpg
38.4062035999959	3.00088160001906	decision	2.03322250000201	left	S	SD027.jpg	SD028.jpg
41.9561753000016	1.01664470002288	loss	NaN	n/a	n/a	SD027.jpg	SD028.jpg
44.7061739999917	3.00060919998214	decision	1.53331590001471	left	S	SD023.jpg	SD024.jpg
48.256235399982	1.01675940002315	win	NaN	n/a	n/a	SD023.jpg	SD024.jpg
51.006041900022	3.00114279997069	decision	1.28377819998423	right	D	DD037.jpg	DD038.jpg
54.5567313000211	1.01622389996191	win	NaN	n/a	n/a	DD037.jpg	DD038.jpg
59.4061493999907	3.00092399999266	decision	1.53310410003178	left	S	SD011.jpg	SD012.jpg
62.9560175000224	1.00015959999291	loss	NaN	n/a	n/a	SD011.jpg	SD012.jpg
67.7897282000049	3.00042329996359	decision	1.78331159998197	left	D	DD009.jpg	DD010.jpg
71.339375999989	1.00020629999926	win	NaN	n/a	n/a	DD009.jpg	DD010.jpg
74.0735225999961	3.00017690000823	decision	1.53211319999536	right	D	DD027.jpg	DD028.jpg
77.622956999985	1.01684290001867	win	NaN	n/a	n/a	DD027.jpg	DD028.jpg
82.4899019000004	3.00159070000518	decision	2.53492070001084	right	D	DD015.jpg	DD016.jpg
86.0398983000196	1.01646079996135	loss	NaN	n/a	n/a	DD015.jpg	DD016.jpg
92.9899746999727	3.00198200001614	decision	2.03268370003207	left	S	SD029.jpg	SD030.jpg
96.5400083999848	1.00001840002369	loss	NaN	n/a	n/a	SD029.jpg	SD030.jpg
101.373448400002	3.00203789997613	decision	1.78244589996757	left	S	SD015.jpg	SD016.jpg
104.923213900009	1.00016659998801	win	NaN	n/a	n/a	SD015.jpg	SD016.jpg
111.840181100008	3.00109839998186	decision	2.03302909998456	right	S	SD007.jpg	SD008.jpg
115.390733900014	1.01610139996046	win	NaN	n/a	n/a	SD007.jpg	SD008.jpg
120.240069799998	3.0015031999792	decision	1.28371340001468	right	S	SD017.jpg	SD018.jpg
123.790188000014	1.01635629998054	win	NaN	n/a	n/a	SD017.jpg	SD018.jpg
126.540056600003	3.00134179997258	decision	1.53377729997737	right	D	DD033.jpg	DD034.jpg
130.08993040002	1.00013899995247	win	NaN	n/a	n/a	DD033.jpg	DD034.jpg
132.823543999984	3.001485100016	decision	1.78361310000764	left	D	DD007.jpg	DD008.jpg
136.373570099997	1.00012179999612	loss	NaN	n/a	n/a	DD007.jpg	DD008.jpg
139.106690899993	3.00182389997644	decision	1.78261270001531	left	D	DD023.jpg	DD024.jpg
142.657128799998	1.01639309996972	loss	NaN	n/a	n/a	DD023.jpg	DD024.jpg
155.906880799972	3.00181390001671	decision	1.5337682000245	left	S	SD009.jpg	SD010.jpg
159.457030999998	1.00036890001502	loss	NaN	n/a	n/a	SD009.jpg	SD010.jpg
164.290662000014	3.00056369998492	decision	1.7832708999631	right	D	DD001.jpg	DD002.jpg
167.840612599975	1.01645009999629	win	NaN	n/a	n/a	DD001.jpg	DD002.jpg
170.624016700021	3.00187209999422	decision	1.53223019995494	left	S	SD019.jpg	SD020.jpg
174.173765100015	1.00037589995191	loss	NaN	n/a	n/a	SD019.jpg	SD020.jpg
181.12428779999	3.00111439998727	decision	1.78318730002502	right	D	DD031.jpg	DD032.jpg
184.674087699968	1.01637990004383	loss	NaN	n/a	n/a	DD031.jpg	DD032.jpg
189.524211600015	3.00149609998334	decision	1.78342100000009	left	S	SD005.jpg	SD006.jpg
193.074016399973	1.01682700001402	win	NaN	n/a	n/a	SD005.jpg	SD006.jpg
195.840780399973	3.0011454000487	decision	2.5491536000045	left	D	DD019.jpg	DD020.jpg
199.390773400024	1.00031869998202	win	NaN	n/a	n/a	DD019.jpg	DD020.jpg
206.324319100007	3.00009799998952	decision	1.28301630000351	right	S	SD013.jpg	SD014.jpg
209.874144500005	1.00023669999791	loss	NaN	n/a	n/a	SD013.jpg	SD014.jpg
216.807637399994	3.00010240002302	decision	1.53237400000216	left	S	SD031.jpg	SD032.jpg
220.357677499996	1.01654219999909	loss	NaN	n/a	n/a	SD031.jpg	SD032.jpg
225.207873900014	3.00238269998226	decision	1.78290089999791	left	D	DD039.jpg	DD040.jpg
228.757508400013	1.00018420000561	loss	NaN	n/a	n/a	DD039.jpg	DD040.jpg
231.507807700022	3.00188019999769	decision	1.28348449995974	left	D	DD005.jpg	DD006.jpg
235.057608300005	1.00077899999451	loss	NaN	n/a	n/a	DD005.jpg	DD006.jpg
241.991372799966	3.00128680001944	decision	1.78310760000022	right	S	SD037.jpg	SD038.jpg
245.54114310001	1.00018490001094	loss	NaN	n/a	n/a	SD037.jpg	SD038.jpg
248.27455989999	3.00126809999347	decision	1.28241039998829	right	S	SD039.jpg	SD040.jpg
251.824676899996	1.0166273000068	win	NaN	n/a	n/a	SD039.jpg	SD040.jpg
254.574516699999	3.00118979997933	decision	1.78354149998631	right	S	SD033.jpg	SD034.jpg
258.124765000015	1.01628779998282	loss	NaN	n/a	n/a	SD033.jpg	SD034.jpg
260.874896999972	3.00152990000788	decision	1.28218239999842	left	D	DD013.jpg	DD014.jpg
264.424768399971	1.00010810000822	win	NaN	n/a	n/a	DD013.jpg	DD014.jpg
269.241208399995	3.00216069997987	decision	1.78282979998039	right	S	SD001.jpg	SD002.jpg
272.791302800004	1.01695600000676	win	NaN	n/a	n/a	SD001.jpg	SD002.jpg
275.541486600006	3.00233039999148	decision	1.53298000001814	right	D	DD003.jpg	DD004.jpg
279.091560299974	1.016380999994	win	NaN	n/a	n/a	DD003.jpg	DD004.jpg
283.941741699993	3.00103420001687	decision	1.28342270001303	right	S	SD003.jpg	SD004.jpg
287.491572499974	1.01697300001979	win	NaN	n/a	n/a	SD003.jpg	SD004.jpg
294.441561000014	3.00177430000622	decision	1.53347409999697	left	D	DD025.jpg	DD026.jpg
297.991940599983	1.01633379998384	win	NaN	n/a	n/a	DD025.jpg	DD026.jpg
304.941932099988	3.00146390002919	decision	1.28377849998651	left	S	SD035.jpg	SD036.jpg
308.491910699988	1.01659000001382	win	NaN	n/a	n/a	SD035.jpg	SD036.jpg
311.242024499981	3.00062000000617	decision	2.03323150001233	left	D	DD011.jpg	DD012.jpg
314.791937100003	1.01636140001938	loss	NaN	n/a	n/a	DD011.jpg	DD012.jpg
317.541642799973	3.00027150003007	decision	1.53316290001385	right	S	SD021.jpg	SD022.jpg
321.091633400007	1.00030859996332	win	NaN	n/a	n/a	SD021.jpg	SD022.jpg
325.925136999984	3.00054889998864	decision	1.53252990002511	right	D	DD029.jpg	DD030.jpg
329.475403700024	1.0163519999478	loss	NaN	n/a	n/a	DD029.jpg	DD030.jpg
