onset	duration	trial_type	rt	resp	gender	image_left	image_right
0.605068899691105	3.00155920023099	decision	1.53361760033295	left	S	SD001.jpg	SD002.jpg
4.15505789965391	1.00000480003655	win	NaN	n/a	n/a	SD001.jpg	SD002.jpg
11.0886196000502	3.00102719990537	decision	2.03310819994658	right	S	SD003.jpg	SD004.jpg
14.6386810997501	1.01663420023397	loss	NaN	n/a	n/a	SD003.jpg	SD004.jpg
17.3887288998812	3.00058129988611	decision	2.03346440009773	right	S	SD005.jpg	SD006.jpg
20.938717099838	1.016571899876	win	NaN	n/a	n/a	SD005.jpg	SD006.jpg
23.721952999942	3.00140459975228	decision	1.78247019974515	left	D	DD001.jpg	DD002.jpg
27.2720721000805	1.01648529991508	win	NaN	n/a	n/a	DD001.jpg	DD002.jpg
32.122207599692	3.00179760018364	decision	1.78295980021358	right	D	DD003.jpg	DD004.jpg
35.6719951000996	1.00015579955652	loss	NaN	n/a	n/a	DD003.jpg	DD004.jpg
42.6556172999553	3.00047850003466	decision	1.78320829989389	left	S	SD007.jpg	SD008.jpg
46.205346299801	1.00025250017643	loss	NaN	n/a	n/a	SD007.jpg	SD008.jpg
51.1221869001165	3.00167729984969	decision	2.03297429997474	right	S	SD009.jpg	SD010.jpg
54.672351999674	1.01681510033086	win	NaN	n/a	n/a	SD009.jpg	SD010.jpg
59.5222681998275	3.00108700012788	decision	2.03257719986141	right	D	DD005.jpg	DD006.jpg
63.0724384998903	1.01663840003312	loss	NaN	n/a	n/a	DD005.jpg	DD006.jpg
65.8225997998379	3.00165189988911	decision	1.53297229995951	left	D	DD007.jpg	DD008.jpg
69.3724764999934	1.01666449988261	win	NaN	n/a	n/a	DD007.jpg	DD008.jpg
72.1225486998446	3.00070540001616	decision	2.0494121001102	right	D	DD009.jpg	DD010.jpg
75.6724793999456	1.0167831000872	win	NaN	n/a	n/a	DD009.jpg	DD010.jpg
78.4225262999535	3.0013561998494	decision	2.28238519979641	right	D	DD011.jpg	DD012.jpg
81.9727380997501	1.01597910001874	loss	NaN	n/a	n/a	DD011.jpg	DD012.jpg
86.8223577998579	3.00139359990135	decision	1.53253290010616	left	S	SD011.jpg	SD012.jpg
90.372887799982	1.01651349989697	loss	NaN	n/a	n/a	SD011.jpg	SD012.jpg
93.1226987000555	3.00111439963803	decision	2.28352269995958	right	S	SD013.jpg	SD014.jpg
96.6727761998773	1.016686799936	win	NaN	n/a	n/a	SD013.jpg	SD014.jpg
103.622915099841	3.00128250010312	decision	1.54286050004885	left	S	SD015.jpg	SD016.jpg
107.17250049999	1.00039860000834	win	NaN	n/a	n/a	SD015.jpg	SD016.jpg
109.906241399702	3.00191830005497	decision	1.78378870012239	left	D	DD013.jpg	DD014.jpg
113.456203399692	1.01640990003943	win	NaN	n/a	n/a	DD013.jpg	DD014.jpg
120.406380899716	3.00189770013094	decision	1.53281910018995	right	S	SD017.jpg	SD018.jpg
123.956205300055	1.00011109979823	win	NaN	n/a	n/a	SD017.jpg	SD018.jpg
128.889902600087	3.00210109958425	decision	1.53286869963631	left	D	DD015.jpg	DD016.jpg
132.439757099841	1.01656359992921	win	NaN	n/a	n/a	DD015.jpg	DD016.jpg
137.389888300095	3.00155599974096	decision	2.03211419982836	left	S	SD019.jpg	SD020.jpg
140.939839399885	1.01665680017322	win	NaN	n/a	n/a	SD019.jpg	SD020.jpg
145.790081500076	3.00188799994066	decision	1.78285369975492	left	D	DD017.jpg	DD018.jpg
149.339923599735	1.00000140024349	win	NaN	n/a	n/a	DD017.jpg	DD018.jpg
162.640134899877	3.00067260023206	decision	1.78209180012345	right	S	SD021.jpg	SD022.jpg
166.190113999881	1.01663279999048	loss	NaN	n/a	n/a	SD021.jpg	SD022.jpg
173.12357939966	3.00207370007411	decision	1.78369630035013	left	S	SD023.jpg	SD024.jpg
176.673422799911	1.0168217997998	win	NaN	n/a	n/a	SD023.jpg	SD024.jpg
183.707112799864	3.00083689996973	decision	2.28341470006853	left	S	SD025.jpg	SD026.jpg
187.256976699922	1.01664480008185	loss	NaN	n/a	n/a	SD025.jpg	SD026.jpg
192.107245199848	3.00087560014799	decision	2.53445800021291	right	S	SD027.jpg	SD028.jpg
195.656816599891	1.00003969995305	loss	NaN	n/a	n/a	SD027.jpg	SD028.jpg
198.42378859967	3.00009580003098	decision	1.78215430025011	left	D	DD019.jpg	DD020.jpg
201.973335899878	1.00015929993242	loss	NaN	n/a	n/a	DD019.jpg	DD020.jpg
204.707156199962	3.00076289987192	decision	1.5322257000953	right	D	DD021.jpg	DD022.jpg
208.257213199977	1.01657659979537	win	NaN	n/a	n/a	DD021.jpg	DD022.jpg
215.207243300043	3.00057390006259	decision	2.28227739967406	right	S	SD029.jpg	SD030.jpg
218.757210199721	1.0000118999742	loss	NaN	n/a	n/a	SD029.jpg	SD030.jpg
225.690704799723	3.00108700012788	decision	1.53346180031076	left	S	SD031.jpg	SD032.jpg
229.240438699722	1.01689069997519	win	NaN	n/a	n/a	SD031.jpg	SD032.jpg
234.174144299701	3.00110090011731	decision	2.53420690027997	right	D	DD023.jpg	DD024.jpg
237.723917699885	1.00005079992115	loss	NaN	n/a	n/a	DD023.jpg	DD024.jpg
240.457560299896	3.00168430013582	decision	2.03269220003858	left	D	DD025.jpg	DD026.jpg
244.007422300056	1.01669309986755	win	NaN	n/a	n/a	DD025.jpg	DD026.jpg
248.857684399933	3.00001739989966	decision	2.03205769974738	right	D	DD027.jpg	DD028.jpg
252.407295799814	1.00022060004994	loss	NaN	n/a	n/a	DD027.jpg	DD028.jpg
255.140704299789	3.00211660005152	decision	1.53371510002762	left	S	SD033.jpg	SD034.jpg
258.690727899782	1.00009520025924	loss	NaN	n/a	n/a	SD033.jpg	SD034.jpg
261.424342799932	3.00106369983405	decision	1.28362079989165	right	S	SD035.jpg	SD036.jpg
264.974283699878	1.00003000022843	loss	NaN	n/a	n/a	SD035.jpg	SD036.jpg
267.707529999781	3.00041319988668	decision	2.03237510006875	left	S	SD037.jpg	SD038.jpg
271.257375299931	1.00035410001874	win	NaN	n/a	n/a	SD037.jpg	SD038.jpg
278.191068599932	3.00052839983255	decision	2.55040209973231	right	D	DD029.jpg	DD030.jpg
281.741147799883	1.01667839987203	loss	NaN	n/a	n/a	DD029.jpg	DD030.jpg
284.507929000072	3.00092629995197	decision	2.28425379982218	right	D	DD031.jpg	DD032.jpg
288.057901199907	1.01633859984577	loss	NaN	n/a	n/a	DD031.jpg	DD032.jpg
292.908067499753	3.00140770012513	decision	1.78302730014548	left	D	DD033.jpg	DD034.jpg
296.457900600042	1.01678009983152	win	NaN	n/a	n/a	DD033.jpg	DD034.jpg
303.408026499674	3.00180720025674	decision	1.5327282003127	right	S	SD039.jpg	SD040.jpg
306.958039199933	1.00003350013867	loss	NaN	n/a	n/a	SD039.jpg	SD040.jpg
313.907903099898	3.00144390016794	decision	2.03287409991026	left	D	DD035.jpg	DD036.jpg
317.457965299953	1.0000660000369	win	NaN	n/a	n/a	DD035.jpg	DD036.jpg
320.191532299854	3.00095080025494	decision	2.28338639996946	right	D	DD037.jpg	DD038.jpg
323.741507499944	1.01662909984589	loss	NaN	n/a	n/a	DD037.jpg	DD038.jpg
326.491672599688	3.0018741004169	decision	1.53277300018817	left	D	DD039.jpg	DD040.jpg
330.041505499743	1.01623610034585	loss	NaN	n/a	n/a	DD039.jpg	DD040.jpg
