onset	duration	trial_type	rt	resp	gender	image_left	image_right
0.653615100076422	3.00122329988517	decision	2.03279870003462	right	F	FF017.jpg	FF018.jpg
4.20367459999397	1.01661829999648	loss	NaN	n/a	n/a	FF017.jpg	FF018.jpg
11.1701877999585	3.00111080007628	decision	1.78311079996638	right	F	FF035.jpg	FF036.jpg
14.7207690998912	1.01637400011532	win	NaN	n/a	n/a	FF035.jpg	FF036.jpg
21.7036307000089	3.00074640009552	decision	2.03327549993992	left	F	FF021.jpg	FF022.jpg
25.2541014000308	1.01615829998627	loss	NaN	n/a	n/a	FF021.jpg	FF022.jpg
32.2203585999086	3.00169589999132	decision	2.53324490017258	right	M	MF025.jpg	MF026.jpg
35.7706808000803	1.01652489998378	loss	NaN	n/a	n/a	MF025.jpg	MF026.jpg
38.5540821999311	3.00130650005303	decision	1.53279840014875	left	M	MF027.jpg	MF028.jpg
42.103882699972	1.01645330013707	loss	NaN	n/a	n/a	MF027.jpg	MF028.jpg
44.8707983000204	3.00116820004769	decision	1.53285599988885	right	M	MF023.jpg	MF024.jpg
48.4204895999283	1.00046500004828	win	NaN	n/a	n/a	MF023.jpg	MF024.jpg
51.1872294999193	3.0018780999817	decision	2.03355600009672	right	F	FF037.jpg	FF038.jpg
54.7376699000597	1.01645899983123	win	NaN	n/a	n/a	FF037.jpg	FF038.jpg
59.6207789999899	3.00024119997397	decision	1.78226840007119	right	M	MF011.jpg	MF012.jpg
63.1710314000957	1.01658599986695	loss	NaN	n/a	n/a	MF011.jpg	MF012.jpg
68.0376728000119	3.00128929992206	decision	1.53349770000204	right	F	FF009.jpg	FF010.jpg
71.5874155000784	1.00006949994713	win	NaN	n/a	n/a	FF009.jpg	FF010.jpg
74.3541274000891	3.00130809983239	decision	1.78369389986619	left	F	FF027.jpg	FF028.jpg
77.9043805000838	1.01669259998016	win	NaN	n/a	n/a	FF027.jpg	FF028.jpg
82.7876758999191	3.00087210000493	decision	2.03347490006126	right	F	FF015.jpg	FF016.jpg
86.3378560000565	1.01659059990197	loss	NaN	n/a	n/a	FF015.jpg	FF016.jpg
93.3210821999237	3.0012582000345	decision	2.03377380012535	left	M	MF029.jpg	MF030.jpg
96.8714487999678	1.01624889997765	loss	NaN	n/a	n/a	MF029.jpg	MF030.jpg
101.754679299891	3.00113670015708	decision	2.28236260008998	left	M	MF015.jpg	MF016.jpg
105.304534200113	1.00010639987886	win	NaN	n/a	n/a	MF015.jpg	MF016.jpg
112.27151770005	3.00081150000915	decision	1.78230759990402	left	M	MF007.jpg	MF008.jpg
115.822048400063	1.016064299969	win	NaN	n/a	n/a	MF007.jpg	MF008.jpg
120.688025200041	3.00183620001189	decision	2.53367029991932	right	M	MF017.jpg	MF018.jpg
124.238019899931	1.00019010016695	win	NaN	n/a	n/a	MF017.jpg	MF018.jpg
127.004789999919	3.00081120012328	decision	2.53344050003216	right	F	FF033.jpg	FF034.jpg
130.554740299936	1.00000989995897	win	NaN	n/a	n/a	FF033.jpg	FF034.jpg
133.321608799975	3.00104980007745	decision	1.78400310012512	right	F	FF007.jpg	FF008.jpg
136.871752799954	1.01657960005105	loss	NaN	n/a	n/a	FF007.jpg	FF008.jpg
139.654941400047	3.00190049991943	decision	1.53330340003595	left	F	FF023.jpg	FF024.jpg
143.205061200075	1.01673499983735	loss	NaN	n/a	n/a	FF023.jpg	FF024.jpg
156.471720499918	3.00149550009519	decision	1.53284160001203	left	M	MF009.jpg	MF010.jpg
160.021956800018	1.01640659989789	loss	NaN	n/a	n/a	MF009.jpg	MF010.jpg
164.888524099952	3.00084160012193	decision	1.53302760003135	right	F	FF001.jpg	FF002.jpg
168.438700000057	1.01664189994335	win	NaN	n/a	n/a	FF001.jpg	FF002.jpg
171.222183899954	3.00164359994233	decision	1.78250390011817	left	M	MF019.jpg	MF020.jpg
174.771933200071	1.00101969996467	loss	NaN	n/a	n/a	MF019.jpg	MF020.jpg
181.738932099892	3.00117070018314	decision	1.78235830017366	right	F	FF031.jpg	FF032.jpg
185.288859599968	1.01664800010622	loss	NaN	n/a	n/a	FF031.jpg	FF032.jpg
190.17218949995	3.00174710014835	decision	1.7831910001114	left	M	MF005.jpg	MF006.jpg
193.722060400061	1.00002479995601	win	NaN	n/a	n/a	MF005.jpg	MF006.jpg
196.489449500106	3.00079639977776	decision	2.0320118998643	right	F	FF019.jpg	FF020.jpg
200.039085400058	1.01675269985572	win	NaN	n/a	n/a	FF019.jpg	FF020.jpg
207.022538699908	3.00075820018537	decision	1.78318050014786	right	M	MF013.jpg	MF014.jpg
210.572515799897	1.01640570000745	loss	NaN	n/a	n/a	MF013.jpg	MF014.jpg
217.555867299903	3.00141670019366	decision	2.28308990015648	left	M	MF031.jpg	MF032.jpg
221.105701700086	1.00019119982608	loss	NaN	n/a	n/a	MF031.jpg	MF032.jpg
225.972691599978	3.0012674999889	decision	1.78283770009875	right	F	FF039.jpg	FF040.jpg
229.522455499973	1.00026519992389	loss	NaN	n/a	n/a	FF039.jpg	FF040.jpg
232.272589100059	3.00148570002057	decision	1.53342129988596	left	F	FF005.jpg	FF006.jpg
235.822596400045	1.00043540005572	loss	NaN	n/a	n/a	FF005.jpg	FF006.jpg
242.789415600011	3.00110869994387	decision	2.0324770999141	left	M	MF037.jpg	MF038.jpg
246.339539800072	1.01661739987321	loss	NaN	n/a	n/a	MF037.jpg	MF038.jpg
249.106320800027	3.00174889992923	decision	2.03279539989308	right	M	MF039.jpg	MF040.jpg
252.655947899912	1.0000567000825	win	NaN	n/a	n/a	MF039.jpg	MF040.jpg
255.423020699993	3.00106430007145	decision	2.03333749994636	left	M	MF033.jpg	MF034.jpg
258.972832700005	1.00004089996219	loss	NaN	n/a	n/a	MF033.jpg	MF034.jpg
261.722897199914	3.00153370015323	decision	2.03358300006948	right	F	FF013.jpg	FF014.jpg
265.273091299925	1.01662020012736	win	NaN	n/a	n/a	FF013.jpg	FF014.jpg
270.156510399887	3.00182250002399	decision	2.5324800000526	right	M	MF001.jpg	MF002.jpg
273.706244299887	1.00001090019941	win	NaN	n/a	n/a	MF001.jpg	MF002.jpg
276.473833899945	3.00138369994238	decision	2.54861890012398	left	F	FF003.jpg	FF004.jpg
280.023124800064	1.01636480004527	win	NaN	n/a	n/a	FF003.jpg	FF004.jpg
284.906312299892	3.00157560012303	decision	2.03271020017564	left	M	MF003.jpg	MF004.jpg
288.456365399994	1.00027570012026	win	NaN	n/a	n/a	MF003.jpg	MF004.jpg
295.406515799928	3.00139750004746	decision	2.03357720002532	right	F	FF025.jpg	FF026.jpg
298.956477399915	1.00024950015359	win	NaN	n/a	n/a	FF025.jpg	FF026.jpg
305.906865699915	3.00104820006527	decision	2.28231060015969	left	M	MF035.jpg	MF036.jpg
309.456873900024	1.00000629993156	win	NaN	n/a	n/a	MF035.jpg	MF036.jpg
312.223272300093	3.00196829997003	decision	2.03260459983721	left	F	FF011.jpg	FF012.jpg
315.773369200062	1.00068619986996	loss	NaN	n/a	n/a	FF011.jpg	FF012.jpg
318.540384599939	3.00151780014858	decision	2.53440540004522	left	M	MF021.jpg	MF022.jpg
322.090433599893	1.01654380001128	win	NaN	n/a	n/a	MF021.jpg	MF022.jpg
326.973639199976	3.00160309998319	decision	1.78246139991097	left	F	FF029.jpg	FF030.jpg
330.523722599959	1.0165832999628	loss	NaN	n/a	n/a	FF029.jpg	FF030.jpg
