onset	duration	trial_type	rt	resp	gender	image_left	image_right
0.648009800119326	3.00161649985239	decision	2.282844699919224	left	F	FF017.jpg	FF018.jpg
4.19791910005733	1.01661380007863	loss	n/a	n/a	n/a	FF017.jpg	FF018.jpg
11.1815895000473	3.00111169996671	decision	2.0330610999371856	right	F	FF035.jpg	FF036.jpg
14.7316064999904	1.0003206001129	win	n/a	n/a	n/a	FF035.jpg	FF036.jpg
21.6979253999889	3.00086360005662	decision	2.283132900018245	right	F	FF021.jpg	FF022.jpg
25.2480143001303	1.01659879996441	loss	n/a	n/a	n/a	FF021.jpg	FF022.jpg
32.2316874000244	3.00149239995517	decision	2.282920900033787	left	M	MF025.jpg	MF026.jpg
35.7813961999491	1.01655780011788	loss	n/a	n/a	n/a	MF025.jpg	MF026.jpg
38.5646822999697	3.00109999999404	decision	2.2830734001472592	right	M	MF027.jpg	MF028.jpg
42.1146931999829	1.01662750006653	loss	n/a	n/a	n/a	MF027.jpg	MF028.jpg
44.8980245001148	3.00081969983876	decision	2.2825517000164837	right	M	MF023.jpg	MF024.jpg
48.4478714000434	1.01675840001553	win	n/a	n/a	n/a	MF023.jpg	MF024.jpg
51.2146706001367	3.00051769986749	decision	1.783048199955374	right	F	FF037.jpg	FF038.jpg
54.7653551001567	1.01607189979404	win	n/a	n/a	n/a	FF037.jpg	FF038.jpg
59.6479156999849	3.00095729995519	decision	2.2824975000694394	left	M	MF011.jpg	MF012.jpg
63.1978658000007	1.0167171000503	loss	n/a	n/a	n/a	MF011.jpg	MF012.jpg
68.0646255000029	3.00205909996293	decision	2.2836899999529123	left	F	FF009.jpg	FF010.jpg
71.6144987000152	1.00000010011718	win	n/a	n/a	n/a	FF009.jpg	FF010.jpg
74.3813937001396	3.00103379995562	decision	2.2825949999969453	right	F	FF027.jpg	FF028.jpg
77.9315700000152	1.01614750013687	win	n/a	n/a	n/a	FF027.jpg	FF028.jpg
82.7978650000878	3.00065939989872	decision	2.0331357999239117	left	F	FF015.jpg	FF016.jpg
86.3477831999771	1.00007680011913	loss	n/a	n/a	n/a	FF015.jpg	FF016.jpg
93.3146780999377	3.00043980008923	decision	2.533116400009021	left	M	MF029.jpg	MF030.jpg
96.8645520999562	1.00001240009442	loss	n/a	n/a	n/a	MF029.jpg	MF030.jpg
101.731198800029	3.00065260007977	decision	2.032427800120786	right	M	MF015.jpg	MF016.jpg
105.281273199944	1.01662240014412	win	n/a	n/a	n/a	MF015.jpg	MF016.jpg
112.264858100098	3.00064260000363	decision	2.7990136998705566	left	M	MF007.jpg	MF008.jpg
115.815854700049	1.01535920007154	win	n/a	n/a	n/a	MF007.jpg	MF008.jpg
120.69796920009	3.00103119993582	decision	2.2831443999893963	right	M	MF017.jpg	MF018.jpg
124.247703500092	1.00009669992141	win	n/a	n/a	n/a	MF017.jpg	MF018.jpg
126.997870200081	3.03901070007123	decision-missed	n/a	n/a	F	FF033.jpg	FF034.jpg
130.581173399929	1.00009850016795	win	n/a	n/a	n/a	FF033.jpg	FF034.jpg
133.331534000114	3.00162600004114	decision	1.282270299969241	right	F	FF007.jpg	FF008.jpg
136.880989999976	1.00044360011816	loss	n/a	n/a	n/a	FF007.jpg	FF008.jpg
139.647832999937	3.00081550003961	decision	2.550363900139928	right	F	FF023.jpg	FF024.jpg
143.197750099935	1.01672060019337	loss	n/a	n/a	n/a	FF023.jpg	FF024.jpg
156.482370200101	3.00152139994316	decision	2.2827709999401122	right	M	MF009.jpg	MF010.jpg
160.031198099954	1.01651370013133	loss	n/a	n/a	n/a	MF009.jpg	MF010.jpg
164.897814800031	3.00136190000921	decision	2.283836599905044	left	F	FF001.jpg	FF002.jpg
168.447687300155	1.00004739989527	win	n/a	n/a	n/a	FF001.jpg	FF002.jpg
171.214462900069	3.00135839986615	decision	2.282953100046143	left	M	MF019.jpg	MF020.jpg
174.764562000055	1.01645949995145	loss	n/a	n/a	n/a	MF019.jpg	MF020.jpg
181.747820599936	3.00139770004898	decision	2.2829338000155985	right	F	FF031.jpg	FF032.jpg
185.297740200069	1.00009589991532	loss	n/a	n/a	n/a	FF031.jpg	FF032.jpg
190.147867399966	3.00105820014141	decision	2.0334209001157433	left	M	MF005.jpg	MF006.jpg
193.697683000006	1.00035510002635	win	n/a	n/a	n/a	MF005.jpg	MF006.jpg
196.465529100038	3.00082869990729	decision	1.7813516000751406	left	F	FF019.jpg	FF020.jpg
200.014460300095	1.01654529990628	win	n/a	n/a	n/a	FF019.jpg	FF020.jpg
206.997901299968	3.00225530005991	decision	2.28297740011476	left	M	MF013.jpg	MF014.jpg
210.54767400003	1.00011739996262	loss	n/a	n/a	n/a	MF013.jpg	MF014.jpg
217.5145395	3.0018917999696	decision	2.2828593000303954	left	M	MF031.jpg	MF032.jpg
221.064467200078	1.0165136998985	loss	n/a	n/a	n/a	MF031.jpg	MF032.jpg
225.947901899926	3.00104360003024	decision	2.0325113001745194	left	F	FF039.jpg	FF040.jpg
229.497774299933	1.00005340017378	loss	n/a	n/a	n/a	FF039.jpg	FF040.jpg
232.264374600025	3.00213630008511	decision	2.5358975001145154	left	F	FF005.jpg	FF006.jpg
235.814669300104	1.01636269991286	loss	n/a	n/a	n/a	FF005.jpg	FF006.jpg
242.797731300117	3.0013227998279	decision	2.0332072000019252	right	M	MF037.jpg	MF038.jpg
246.347649700008	1.00004990003072	loss	n/a	n/a	n/a	MF037.jpg	MF038.jpg
249.097824499942	3.00105940015055	decision	1.7834570000413805	left	M	MF039.jpg	MF040.jpg
252.647734300001	1.01659530005418	win	n/a	n/a	n/a	MF039.jpg	MF040.jpg
255.431026499951	3.00120920012705	decision	1.7830570000223815	left	M	MF033.jpg	MF034.jpg
258.980949999997	1.01671870006248	loss	n/a	n/a	n/a	MF033.jpg	MF034.jpg
261.764423999935	3.00153340003453	decision	2.2831460000015795	right	F	FF013.jpg	FF014.jpg
265.31431460008	1.0000215000473	win	n/a	n/a	n/a	FF013.jpg	FF014.jpg
270.1644425001	3.00060579995625	decision	1.7830310999415815	right	M	MF001.jpg	MF002.jpg
273.714493500069	1.0163519999478	win	n/a	n/a	n/a	MF001.jpg	MF002.jpg
276.497846300015	3.00144409993663	decision	2.0329698000568897	right	F	FF003.jpg	FF004.jpg
280.047609600006	1.01655720011331	win	n/a	n/a	n/a	FF003.jpg	FF004.jpg
284.930985500105	3.00072939996608	decision	2.282171899918467	right	M	MF003.jpg	MF004.jpg
288.480885900091	1.01677839993499	win	n/a	n/a	n/a	MF003.jpg	MF004.jpg
295.464322899934	3.00164240016602	decision	2.5336469002068043	left	F	FF025.jpg	FF026.jpg
299.014324000105	1.01650679996237	win	n/a	n/a	n/a	FF025.jpg	FF026.jpg
305.997705199989	3.00160680012777	decision	2.5333565999753773	left	M	MF035.jpg	MF036.jpg
309.547456300119	1.00013799988665	win	n/a	n/a	n/a	MF035.jpg	MF036.jpg
312.314274200005	3.00068500009365	decision	2.2840789000038058	right	F	FF011.jpg	FF012.jpg
315.864229799947	1.00017720018514	loss	n/a	n/a	n/a	FF011.jpg	FF012.jpg
318.630882800091	3.00172739988193	decision	2.284323399886489	left	M	MF021.jpg	MF022.jpg
322.180879099993	1.01692269998603	win	n/a	n/a	n/a	MF021.jpg	MF022.jpg
327.064239399973	3.00176000013016	decision	2.282729000085965	left	F	FF029.jpg	FF030.jpg
330.614166799933	1.01689110021107	loss	n/a	n/a	n/a	FF029.jpg	FF030.jpg
