onset	duration	trial_type	rt	resp	gender	image_left	image_right
0.645818699966185	3.00233460002346	decision	2.03198450000491	left	F	FF017.jpg	FF018.jpg
4.19501099997433	1.00015300000086	loss	n/a	n/a	n/a	FF017.jpg	FF018.jpg
11.1623159999726	3.00064400001429	decision	2.282142699987162	right	F	FF035.jpg	FF036.jpg
14.7119555999525	1.00041490001604	win	n/a	n/a	n/a	FF035.jpg	FF036.jpg
21.6791511999909	3.00072189996717	decision	2.784084199985955	right	F	FF021.jpg	FF022.jpg
25.2290146999876	1.01655489997938	loss	n/a	n/a	n/a	FF021.jpg	FF022.jpg
32.2125490999897	3.00118809996638	decision	2.5331673999899067	right	M	MF025.jpg	MF026.jpg
35.76230079995	1.00032250001095	loss	n/a	n/a	n/a	MF025.jpg	MF026.jpg
38.5289744999609	3.0016468000249	decision	2.534176099987235	right	M	MF027.jpg	MF028.jpg
42.0791964999516	1.01660750003066	loss	n/a	n/a	n/a	MF027.jpg	MF028.jpg
44.8625737999682	3.000839299988	decision	2.7991091000149027	left	M	MF023.jpg	MF024.jpg
48.4124983999645	1.01654119999148	win	n/a	n/a	n/a	MF023.jpg	MF024.jpg
51.1959661999717	3.00060919998214	decision	2.0330323000089265	left	F	FF037.jpg	FF038.jpg
54.745778499986	1.00013589998707	win	n/a	n/a	n/a	FF037.jpg	FF038.jpg
59.596092599968	3.00103169999784	decision	2.80019410001114	left	M	MF011.jpg	MF012.jpg
63.1460221999441	1.00001160003012	loss	n/a	n/a	n/a	MF011.jpg	MF012.jpg
68.0127394999727	3.00124359998154	decision	2.033262000011746	left	F	FF009.jpg	FF010.jpg
71.562701399962	1.00004030001583	win	n/a	n/a	n/a	FF009.jpg	FF010.jpg
74.3294622999965	3.00124799995683	decision	2.535386399948038	right	F	FF027.jpg	FF028.jpg
77.8794640999986	1.01689229998738	win	n/a	n/a	n/a	FF027.jpg	FF028.jpg
82.7463398999535	3.0018498999998	decision	2.533457899990026	left	F	FF015.jpg	FF016.jpg
86.2960460999748	1.00014109996846	loss	n/a	n/a	n/a	FF015.jpg	FF016.jpg
93.2633211999782	3.30046739999671	decision	3.299675899965223	right	M	MF029.jpg	MF030.jpg
97.1130174999707	1.00022849999368	loss	n/a	n/a	n/a	MF029.jpg	MF030.jpg
101.964446099999	3.00093769998057	decision	2.783034299965948	left	M	MF015.jpg	MF016.jpg
105.513564399967	1.01645970001118	win	n/a	n/a	n/a	MF015.jpg	MF016.jpg
112.496627899993	3.0013926999527	decision	2.5345596999977715	right	M	MF007.jpg	MF008.jpg
116.046832199965	1.01650969998445	win	n/a	n/a	n/a	MF007.jpg	MF008.jpg
120.930271399964	3.04042490001302	decision-missed	n/a	n/a	M	MF017.jpg	MF018.jpg
124.513541599968	1.00000160001218	win	n/a	n/a	n/a	MF017.jpg	MF018.jpg
127.263431899948	3.0011221000459	decision	1.7825439000152983	right	F	FF033.jpg	FF034.jpg
130.813270299986	1.00033619999886	win	n/a	n/a	n/a	FF033.jpg	FF034.jpg
133.580460899975	3.00170919997618	decision	2.032218299980741	left	F	FF007.jpg	FF008.jpg
137.129946799949	1.00075760000618	loss	n/a	n/a	n/a	FF007.jpg	FF008.jpg
139.896949799964	3.00084719998995	decision	2.0332591999904253	right	F	FF023.jpg	FF024.jpg
143.447045899986	1.01678519998677	loss	n/a	n/a	n/a	FF023.jpg	FF024.jpg
156.730527999985	3.0016442000051	decision	1.783254300011322	right	M	MF009.jpg	MF010.jpg
160.280571299954	1.01709570002276	loss	n/a	n/a	n/a	MF009.jpg	MF010.jpg
165.147485499969	3.00109360000351	decision	2.0322072000126354	left	F	FF001.jpg	FF002.jpg
168.697379199963	1.01648500002921	win	n/a	n/a	n/a	FF001.jpg	FF002.jpg
171.480850399996	3.00068309996277	decision	2.5344762000022456	left	M	MF019.jpg	MF020.jpg
175.030822399945	1.00009000004502	loss	n/a	n/a	n/a	MF019.jpg	MF020.jpg
181.9810421	3.00026979995891	decision	2.2823316999711096	right	F	FF031.jpg	FF032.jpg
185.530737599998	1.01687609998044	loss	n/a	n/a	n/a	FF031.jpg	FF032.jpg
190.414230799943	3.00123390002409	decision	2.5495143000152893	left	M	MF005.jpg	MF006.jpg
193.964272499958	1.01643170003081	win	n/a	n/a	n/a	MF005.jpg	MF006.jpg
196.747619599977	3.00145350000821	decision	1.7833135999972	left	F	FF019.jpg	FF020.jpg
200.297562599997	1.00077869999222	win	n/a	n/a	n/a	FF019.jpg	FF020.jpg
207.264443699969	3.00092369999038	decision	2.7997285000164993	right	M	MF013.jpg	MF014.jpg
210.814680199954	1.0166620000382	loss	n/a	n/a	n/a	MF013.jpg	MF014.jpg
217.781149599992	3.00122199999169	decision	2.5352568999514915	left	M	MF031.jpg	MF032.jpg
221.331566099951	1.01655460003531	loss	n/a	n/a	n/a	MF031.jpg	MF032.jpg
226.214827499993	3.00111219997052	decision	2.799712499952875	right	F	FF039.jpg	FF040.jpg
229.764800399949	1.00003560003825	loss	n/a	n/a	n/a	FF039.jpg	FF040.jpg
232.514742499974	3.0013978999923	decision	1.782530799973756	left	F	FF005.jpg	FF006.jpg
236.06478429999	1.00010289996862	loss	n/a	n/a	n/a	FF005.jpg	FF006.jpg
243.032498199958	3.00121250003576	decision	2.031529900035821	right	M	MF037.jpg	MF038.jpg
246.5816873	1.01661369996145	loss	n/a	n/a	n/a	MF037.jpg	MF038.jpg
249.365000699996	3.00133830000414	decision	1.5334483999758959	right	M	MF039.jpg	MF040.jpg
252.914859499957	1.00000870000804	win	n/a	n/a	n/a	MF039.jpg	MF040.jpg
255.681662299961	3.00134930002969	decision	2.032745700038504	left	M	MF033.jpg	MF034.jpg
259.231376099982	1.00020999996923	loss	n/a	n/a	n/a	MF033.jpg	MF034.jpg
261.981788699981	3.00219869997818	decision	1.783977999992203	left	F	FF013.jpg	FF014.jpg
265.531683999987	1.00019669998437	win	n/a	n/a	n/a	FF013.jpg	FF014.jpg
270.398496099981	3.00137249997351	decision	1.7833805999835022	left	M	MF001.jpg	MF002.jpg
273.948554199946	1.00014870002633	win	n/a	n/a	n/a	MF001.jpg	MF002.jpg
276.715422799985	3.00189419998787	decision	2.282965099962894	left	F	FF003.jpg	FF004.jpg
280.265299499966	1.0165338999941	win	n/a	n/a	n/a	FF003.jpg	FF004.jpg
285.148878399981	3.00191699998686	decision	2.2999228999833576	left	M	MF003.jpg	MF004.jpg
288.698605999991	1.00027239997871	win	n/a	n/a	n/a	MF003.jpg	MF004.jpg
295.665502799966	3.00134060002165	decision	2.2838182999985293	right	F	FF025.jpg	FF026.jpg
299.215623599943	1.00022970000282	win	n/a	n/a	n/a	FF025.jpg	FF026.jpg
306.182495099958	3.00201840000227	decision	2.0334094000281766	left	M	MF035.jpg	MF036.jpg
309.73242179997	1.0167149999761	win	n/a	n/a	n/a	MF035.jpg	MF036.jpg
312.51570009999	3.00082849996397	decision	1.7831201999797486	left	F	FF011.jpg	FF012.jpg
316.065847399994	1.0164153999649	loss	n/a	n/a	n/a	FF011.jpg	FF012.jpg
318.848871299997	3.00120060000336	decision	1.7832215999951586	left	M	MF021.jpg	MF022.jpg
322.399343399971	1.00010469998233	win	n/a	n/a	n/a	MF021.jpg	MF022.jpg
327.266068499943	3.00224330002675	decision	1.782910300011281	left	F	FF029.jpg	FF030.jpg
330.816028799978	0.999999499996193	loss	n/a	n/a	n/a	FF029.jpg	FF030.jpg
