onset	duration	trial_type	rt	resp	gender	image_left	image_right
0.596807000001718	3.00125349999871	decision	1.2826916999984	left	S	SD001.jpg	SD002.jpg
4.14716020000196	1.01633929999662	win	NaN	n/a	n/a	SD001.jpg	SD002.jpg
11.081461400001	3.00217599999814	decision	1.53285989999858	left	S	SD003.jpg	SD004.jpg
14.6306485999994	1.01660670000274	loss	NaN	n/a	n/a	SD003.jpg	SD004.jpg
17.3636542999993	3.00113469999997	decision	1.53347310000026	right	S	SD005.jpg	SD006.jpg
20.9136593000003	1.00022050000189	win	NaN	n/a	n/a	SD005.jpg	SD006.jpg
23.6305758000017	3.00045589999718	decision	1.53324330000032	left	D	DD001.jpg	DD002.jpg
27.1808156000006	1.01637439999831	win	NaN	n/a	n/a	DD001.jpg	DD002.jpg
32.0309257000008	3.0021577999978	decision	1.53271809999933	right	D	DD003.jpg	DD004.jpg
35.5809284999996	1.01659070000096	loss	NaN	n/a	n/a	DD003.jpg	DD004.jpg
42.5143099000015	3.00114050000047	decision	1.53252760000032	right	S	SD007.jpg	SD008.jpg
46.0640808999997	1.01660080000147	loss	NaN	n/a	n/a	SD007.jpg	SD008.jpg
50.9141887000005	3.00142950000009	decision	1.283514499999	right	S	SD009.jpg	SD010.jpg
54.4643527000007	1.01687010000023	win	NaN	n/a	n/a	SD009.jpg	SD010.jpg
59.3145814000018	3.00137039999754	decision	1.28236299999844	right	D	DD005.jpg	DD006.jpg
62.8645465000009	1.01660149999952	loss	NaN	n/a	n/a	DD005.jpg	DD006.jpg
65.614601199999	3.00143860000026	decision	1.78228959999979	right	D	DD007.jpg	DD008.jpg
69.1643483000007	1.01658870000028	win	NaN	n/a	n/a	DD007.jpg	DD008.jpg
71.9144042000007	3.00075089999882	decision	1.78239770000073	left	D	DD009.jpg	DD010.jpg
75.4642944000007	1.01684939999905	win	NaN	n/a	n/a	DD009.jpg	DD010.jpg
78.2148144999992	3.00052490000235	decision	1.78200840000136	left	D	DD011.jpg	DD012.jpg
81.7644676999989	1.0166014000024	loss	NaN	n/a	n/a	DD011.jpg	DD012.jpg
86.6145548999993	3.00065929999982	decision	1.78315900000234	left	S	SD011.jpg	SD012.jpg
90.1645658000016	1.00028539999767	loss	NaN	n/a	n/a	SD011.jpg	SD012.jpg
92.8985872000012	3.0009343999991	decision	1.28220869999859	right	S	SD013.jpg	SD014.jpg
96.4481925	1.00011870000162	win	NaN	n/a	n/a	SD013.jpg	SD014.jpg
103.365134300002	3.00173829999767	decision	1.53223099999741	left	S	SD015.jpg	SD016.jpg
106.9147916	1.00010420000035	win	NaN	n/a	n/a	SD015.jpg	SD016.jpg
109.6484251	3.00100050000037	decision	2.03323960000125	right	D	DD013.jpg	DD014.jpg
113.199124900002	1.0159668999986	win	NaN	n/a	n/a	DD013.jpg	DD014.jpg
120.148435999999	3.00091099999918	decision	1.53231180000148	right	S	SD017.jpg	SD018.jpg
123.698266399999	1.01657049999994	win	NaN	n/a	n/a	SD017.jpg	SD018.jpg
128.548705500001	3.00152610000077	decision	1.53260659999796	right	D	DD015.jpg	DD016.jpg
132.098626700001	1.00074619999941	win	NaN	n/a	n/a	DD015.jpg	DD016.jpg
136.9484811	3.00149710000187	decision	1.7828980000013	right	S	SD019.jpg	SD020.jpg
140.498529799999	1.0003624000019	win	NaN	n/a	n/a	SD019.jpg	SD020.jpg
145.315603700001	3.00092869999935	decision	1.53213229999892	left	D	DD017.jpg	DD018.jpg
148.865232700002	1.01670419999937	win	NaN	n/a	n/a	DD017.jpg	DD018.jpg
162.115768700001	3.00151849999747	decision	1.28297969999767	right	S	SD021.jpg	SD022.jpg
165.665619899999	1.01678090000132	loss	NaN	n/a	n/a	SD021.jpg	SD022.jpg
172.599419800001	3.00128089999998	decision	1.2831456999993	right	S	SD023.jpg	SD024.jpg
176.149102899999	1.01670290000038	win	NaN	n/a	n/a	SD023.jpg	SD024.jpg
183.0826337	3.00176959999953	decision	1.28231750000123	right	S	SD025.jpg	SD026.jpg
186.632434200001	1.01672970000072	loss	NaN	n/a	n/a	SD025.jpg	SD026.jpg
191.482726099999	3.00147040000229	decision	1.78293280000071	left	S	SD027.jpg	SD028.jpg
195.032972600002	1.01619019999998	loss	NaN	n/a	n/a	SD027.jpg	SD028.jpg
197.799542600002	3.00120989999778	decision	1.5320393999973	right	D	DD019.jpg	DD020.jpg
201.3494909	1.0163235	loss	NaN	n/a	n/a	DD019.jpg	DD020.jpg
204.099416000001	3.00062289999914	decision	1.53338879999865	right	D	DD021.jpg	DD022.jpg
207.649320500001	1.00022370000079	win	NaN	n/a	n/a	DD021.jpg	DD022.jpg
214.582641199999	3.00148740000077	decision	1.78270430000339	left	S	SD029.jpg	SD030.jpg
218.133038100001	0.999999299998308	loss	NaN	n/a	n/a	SD029.jpg	SD030.jpg
225.049570700001	3.00143609999941	decision	1.28326119999838	left	S	SD031.jpg	SD032.jpg
228.599463999999	1.00007750000077	win	NaN	n/a	n/a	SD031.jpg	SD032.jpg
233.416391300001	3.00072189999992	decision	1.78415509999832	left	D	DD023.jpg	DD024.jpg
236.966538000001	1.00009289999798	loss	NaN	n/a	n/a	DD023.jpg	DD024.jpg
239.6833467	3.00083979999908	decision	2.28411830000186	left	D	DD025.jpg	DD026.jpg
243.233094200001	1.01687049999964	win	NaN	n/a	n/a	DD025.jpg	DD026.jpg
248.066467799999	3.00146930000119	decision	1.53340100000059	right	D	DD027.jpg	DD028.jpg
251.616506099999	1.00019740000062	loss	NaN	n/a	n/a	DD027.jpg	DD028.jpg
254.3344191	3.00086440000086	decision	2.03120320000016	left	S	SD033.jpg	SD034.jpg
257.8834327	1.00002360000144	loss	NaN	n/a	n/a	SD033.jpg	SD034.jpg
260.6169739	3.00054699999964	decision	2.80016220000107	right	S	SD035.jpg	SD036.jpg
264.166660300001	1.01669249999759	loss	NaN	n/a	n/a	SD035.jpg	SD036.jpg
266.9168364	3.00156359999892	decision	1.53255940000236	right	S	SD037.jpg	SD038.jpg
270.466673999999	1.00008689999959	win	NaN	n/a	n/a	SD037.jpg	SD038.jpg
277.400387900001	3.00228889999926	decision	2.03289959999893	right	D	DD029.jpg	DD030.jpg
280.950215000001	1.00019569999859	loss	NaN	n/a	n/a	DD029.jpg	DD030.jpg
283.6834968	3.00216989999899	decision	1.53276840000035	left	D	DD031.jpg	DD032.jpg
287.2334906	1.01692729999922	loss	NaN	n/a	n/a	DD031.jpg	DD032.jpg
292.083723200001	3.00120509999761	decision	1.28328150000016	left	D	DD033.jpg	DD034.jpg
295.633648700001	1.00022349999927	win	NaN	n/a	n/a	DD033.jpg	DD034.jpg
302.5672137	3.0009957000002	decision	1.28245629999947	right	S	SD039.jpg	SD040.jpg
306.117328700002	1.00004540000009	loss	NaN	n/a	n/a	SD039.jpg	SD040.jpg
313.050571700001	3.00147899999865	decision	1.78350859999773	right	D	DD035.jpg	DD036.jpg
316.6008798	1.01631780000025	win	NaN	n/a	n/a	DD035.jpg	DD036.jpg
319.3510173	3.00109990000055	decision	1.7815483000013	right	D	DD037.jpg	DD038.jpg
322.900841499999	1.01671700000225	loss	NaN	n/a	n/a	DD037.jpg	DD038.jpg
325.650969800001	3.00168649999978	decision	2.28290180000113	right	D	DD039.jpg	DD040.jpg
329.2007037	1.01693149999846	loss	NaN	n/a	n/a	DD039.jpg	DD040.jpg
