onset	duration	trial_type	rt	resp	gender	image_left	image_right
0.651805599918589	3.00109230005182	decision	2.03477280004881	right	M	MF001.jpg	MF002.jpg
4.20149199990556	1.00004650000483	win	NaN	n/a	n/a	MF001.jpg	MF002.jpg
11.1850615998264	3.00101170013659	decision	2.03221850004047	right	M	MF003.jpg	MF004.jpg
14.7350895998534	1.00014779996127	loss	NaN	n/a	n/a	MF003.jpg	MF004.jpg
17.5015904000029	3.00210759998299	decision	2.03282739990391	left	M	MF005.jpg	MF006.jpg
21.0517946998589	1.01658289995976	win	NaN	n/a	n/a	MF005.jpg	MF006.jpg
23.8348765999544	3.00070860004053	decision	1.53238989994861	left	F	FF001.jpg	FF002.jpg
27.3850982999429	1.01653139991686	win	NaN	n/a	n/a	FF001.jpg	FF002.jpg
32.2683439999819	3.00090430001728	decision	1.78354239999317	right	F	FF003.jpg	FF004.jpg
35.8184534998145	1.00003690016456	loss	NaN	n/a	n/a	FF003.jpg	FF004.jpg
42.8015747999307	3.0013234000653	decision	2.28383719990961	left	M	MF007.jpg	MF008.jpg
46.3521314999089	1.01621049991809	loss	NaN	n/a	n/a	MF007.jpg	MF008.jpg
51.2351442999206	3.00149019993842	decision	1.5327955998946	right	M	MF009.jpg	MF010.jpg
54.7850414998829	1.00007340009324	win	NaN	n/a	n/a	MF009.jpg	MF010.jpg
59.6521172998473	3.00139360013418	decision	1.53275330015458	right	F	FF005.jpg	FF006.jpg
63.2018063999712	1.00011739996262	loss	NaN	n/a	n/a	FF005.jpg	FF006.jpg
65.9688211998437	3.00053940014914	decision	2.04940400016494	left	F	FF007.jpg	FF008.jpg
69.5186641998589	1.01644050003961	win	NaN	n/a	n/a	FF007.jpg	FF008.jpg
72.3020364998374	3.00103839999065	decision	1.78336420003325	left	F	FF009.jpg	FF010.jpg
75.8518872999121	1.00025040004402	win	NaN	n/a	n/a	FF009.jpg	FF010.jpg
78.6353284998331	3.00097759999335	decision	1.7830483999569	right	F	FF011.jpg	FF012.jpg
82.1854627998546	1.00018660002388	loss	NaN	n/a	n/a	FF011.jpg	FF012.jpg
87.0525097998325	3.00131910014898	decision	1.53283859998919	left	M	MF011.jpg	MF012.jpg
90.6023103999905	1.01620909990743	loss	NaN	n/a	n/a	MF011.jpg	MF012.jpg
93.3857386999298	3.00033559999429	decision	1.78416939987801	left	M	MF013.jpg	MF014.jpg
96.9354148998391	1.00020990008488	win	NaN	n/a	n/a	MF013.jpg	MF014.jpg
103.902270899853	3.0000652000308	decision	1.53412210009992	left	M	MF015.jpg	MF016.jpg
107.452126199845	1.00024210009724	win	NaN	n/a	n/a	MF015.jpg	MF016.jpg
110.219310699962	3.00121669983491	decision	1.78335749986582	left	F	FF013.jpg	FF014.jpg
113.769149699947	1.00006760004908	win	NaN	n/a	n/a	FF013.jpg	FF014.jpg
120.735695299925	3.0012066999916	decision	1.78387530008331	left	M	MF017.jpg	MF018.jpg
124.285939599853	1.01679080002941	win	NaN	n/a	n/a	MF017.jpg	MF018.jpg
129.169500899967	3.00110500003211	decision	1.78220859984867	left	F	FF015.jpg	FF016.jpg
132.718918399885	1.01663920003921	win	NaN	n/a	n/a	FF015.jpg	FF016.jpg
137.602745699929	3.00119689991698	decision	1.53339600004256	right	M	MF019.jpg	MF020.jpg
141.152432299918	1.00029970007017	win	NaN	n/a	n/a	MF019.jpg	MF020.jpg
146.019680899801	3.00095950020477	decision	1.78390710009262	left	F	FF017.jpg	FF018.jpg
149.569503200008	1.01662329980172	win	NaN	n/a	n/a	FF017.jpg	FF018.jpg
162.853092399891	3.00160979991779	decision	2.03219319996424	right	M	MF021.jpg	MF022.jpg
166.403142299969	1.01649339986034	loss	NaN	n/a	n/a	MF021.jpg	MF022.jpg
173.386407299899	3.00014710007235	decision	1.78307650005445	right	M	MF023.jpg	MF024.jpg
176.936454599956	1.01668339991011	win	NaN	n/a	n/a	MF023.jpg	MF024.jpg
183.919717499986	3.00136829982512	decision	2.03455079998821	left	M	MF025.jpg	MF026.jpg
187.469635799993	1.00016329996288	loss	NaN	n/a	n/a	MF025.jpg	MF026.jpg
192.336491299793	3.00103879999369	decision	1.53243310004473	right	M	MF027.jpg	MF028.jpg
195.886585399974	1.0165529998485	loss	NaN	n/a	n/a	MF027.jpg	MF028.jpg
198.67018749984	3.00046230014414	decision	2.29929850017652	left	F	FF019.jpg	FF020.jpg
202.219752699835	1.000530899968	loss	NaN	n/a	n/a	FF019.jpg	FF020.jpg
204.98646029993	3.0013297998812	decision	1.53389799990691	right	F	FF021.jpg	FF022.jpg
208.536631899886	1.00003589992411	win	NaN	n/a	n/a	FF021.jpg	FF022.jpg
215.503241699887	3.00107249990106	decision	1.53242229996249	right	M	MF029.jpg	MF030.jpg
219.053466399899	1.0166533999145	loss	NaN	n/a	n/a	MF029.jpg	MF030.jpg
226.053351199953	3.00143679999746	decision	1.53293509990908	right	M	MF031.jpg	MF032.jpg
229.603307999903	1.00022369995713	win	NaN	n/a	n/a	MF031.jpg	MF032.jpg
234.470317599829	3.0006895000115	decision	2.03527280013077	right	F	FF023.jpg	FF024.jpg
238.020270599984	1.01643409999087	loss	NaN	n/a	n/a	FF023.jpg	FF024.jpg
240.803760699928	3.00108000007458	decision	2.033651500009	left	F	FF025.jpg	FF026.jpg
244.353571799817	1.00018159998581	win	NaN	n/a	n/a	FF025.jpg	FF026.jpg
249.220479700016	3.0000555999577	decision	2.033005699981	left	F	FF027.jpg	FF028.jpg
252.770404899959	1.01629139995202	loss	NaN	n/a	n/a	FF027.jpg	FF028.jpg
255.553870899836	3.00130160013214	decision	1.78379130014218	right	M	MF033.jpg	MF034.jpg
259.103759199847	1.01669279998168	loss	NaN	n/a	n/a	MF033.jpg	MF034.jpg
261.887219599914	3.00063079991378	decision	1.53369219996966	right	M	MF035.jpg	MF036.jpg
265.437124299817	1.016564700054	loss	NaN	n/a	n/a	MF035.jpg	MF036.jpg
268.220497599803	3.00029610004276	decision	1.53308030008338	right	M	MF037.jpg	MF038.jpg
271.770238499856	1.00024439999834	win	NaN	n/a	n/a	MF037.jpg	MF038.jpg
278.737313699909	3.00088689988479	decision	1.53223369992338	left	F	FF029.jpg	FF030.jpg
282.287139199907	1.01656830008142	loss	NaN	n/a	n/a	FF029.jpg	FF030.jpg
285.070850999793	3.000784000149	decision	2.03260980010964	right	F	FF031.jpg	FF032.jpg
288.620712899836	1.01635200018063	loss	NaN	n/a	n/a	FF031.jpg	FF032.jpg
293.504134299932	3.00079580000602	decision	1.78275629994459	right	F	FF033.jpg	FF034.jpg
297.053979099961	1.01641299994662	win	NaN	n/a	n/a	FF033.jpg	FF034.jpg
304.054029399995	3.00088459998369	decision	1.7832744999323	left	M	MF039.jpg	MF040.jpg
307.604167999933	1.01649959990755	loss	NaN	n/a	n/a	MF039.jpg	MF040.jpg
314.604188299971	3.00020599993877	decision	2.03316749981605	left	F	FF035.jpg	FF036.jpg
318.154315499822	1.01634880015627	win	NaN	n/a	n/a	FF035.jpg	FF036.jpg
320.937256899895	3.00089269992895	decision	2.28376880008727	right	F	FF037.jpg	FF038.jpg
324.487750299973	1.01617319998331	loss	NaN	n/a	n/a	FF037.jpg	FF038.jpg
327.271094099851	3.00041640014388	decision	1.53204620000906	left	F	FF039.jpg	FF040.jpg
330.820839399938	1.00020619994029	loss	NaN	n/a	n/a	FF039.jpg	FF040.jpg
