onset	duration	trial_type	rt	resp	gender	image_left	image_right
0.610683900071308	3.00156740006059	decision	1.78242900012992	left	D	DD017.jpg	DD018.jpg
4.16057100007311	1.01655340008438	loss	NaN	n/a	n/a	DD017.jpg	DD018.jpg
11.1276015001349	3.00218819989823	decision	2.03292270004749	left	D	DD035.jpg	DD036.jpg
14.6775383001659	1.01618669996969	win	NaN	n/a	n/a	DD035.jpg	DD036.jpg
21.6274445001036	3.00143370009027	decision	2.53318829997443	right	D	DD021.jpg	DD022.jpg
25.1776090001222	1.01669429987669	loss	NaN	n/a	n/a	DD021.jpg	DD022.jpg
32.1107827001251	3.00157510000281	decision	2.2821404999122	right	S	SD025.jpg	SD026.jpg
35.6610646001063	1.01667420007288	loss	NaN	n/a	n/a	SD025.jpg	SD026.jpg
38.4110919001978	3.00100149982609	decision	1.7831836999394	left	S	SD027.jpg	SD028.jpg
41.9611355001107	1.01632980001159	loss	NaN	n/a	n/a	SD027.jpg	SD028.jpg
44.6943604000844	3.00130250002258	decision	1.78375929989852	left	S	SD023.jpg	SD024.jpg
48.244280599989	1.00033610011451	win	NaN	n/a	n/a	SD023.jpg	SD024.jpg
50.9787666001357	3.00085700000636	decision	2.53411690006033	left	D	DD037.jpg	DD038.jpg
54.5278416001238	1.00011039990932	win	NaN	n/a	n/a	DD037.jpg	DD038.jpg
59.3614802001975	3.00042079994455	decision	2.03305679978803	left	S	SD011.jpg	SD012.jpg
62.9115757001564	1.01630839984864	loss	NaN	n/a	n/a	SD011.jpg	SD012.jpg
67.7445761000272	3.00099249999039	decision	2.28244880004786	right	D	DD009.jpg	DD010.jpg
71.2949566000607	1.01613070000894	win	NaN	n/a	n/a	DD009.jpg	DD010.jpg
74.0280762000475	3.00156360003166	decision	1.78245980013162	right	D	DD027.jpg	DD028.jpg
77.5778583001811	1.00033599999733	win	NaN	n/a	n/a	DD027.jpg	DD028.jpg
82.4280209001154	3.00064629991539	decision	1.53304010001011	left	D	DD015.jpg	DD016.jpg
85.9781200001016	1.01684900000691	loss	NaN	n/a	n/a	DD015.jpg	DD016.jpg
92.9284165999852	3.00128700002097	decision	2.28254310018383	left	S	SD029.jpg	SD030.jpg
96.4783845001366	1.01669960003346	loss	NaN	n/a	n/a	SD029.jpg	SD030.jpg
101.31167090009	3.0012741999235	decision	1.53313279990107	right	S	SD015.jpg	SD016.jpg
104.861888300162	1.016571899876	win	NaN	n/a	n/a	SD015.jpg	SD016.jpg
111.795554000186	3.00080769998021	decision	2.03204339998774	right	S	SD007.jpg	SD008.jpg
115.345221400028	1.01649060007185	win	NaN	n/a	n/a	SD007.jpg	SD008.jpg
120.195244200062	3.00188140012324	decision	1.78248850000091	left	S	SD017.jpg	SD018.jpg
123.745405300055	1.01671240013093	win	NaN	n/a	n/a	SD017.jpg	SD018.jpg
126.495238900185	3.00094329984859	decision	1.78337479988113	left	D	DD033.jpg	DD034.jpg
130.045360400109	1.00020699994639	win	NaN	n/a	n/a	DD033.jpg	DD034.jpg
132.778889200184	3.00151319988072	decision	1.53212809981778	right	D	DD007.jpg	DD008.jpg
136.328819900053	1.00004280009307	loss	NaN	n/a	n/a	DD007.jpg	DD008.jpg
139.045669400133	3.0010150000453	decision	1.78333540004678	right	D	DD023.jpg	DD024.jpg
142.595338100102	1.00011970009655	loss	NaN	n/a	n/a	DD023.jpg	DD024.jpg
155.829118800117	3.00122620002367	decision	2.03334530000575	right	S	SD009.jpg	SD010.jpg
159.37888510013	1.00019589997828	loss	NaN	n/a	n/a	SD009.jpg	SD010.jpg
164.195927900029	3.00110420002602	decision	1.53304560016841	left	D	DD001.jpg	DD002.jpg
167.74569260003	1.01685969997197	win	NaN	n/a	n/a	DD001.jpg	DD002.jpg
170.512391000055	3.00058600003831	decision	1.78301330003887	left	S	SD019.jpg	SD020.jpg
174.062611900037	1.0164171999786	loss	NaN	n/a	n/a	SD019.jpg	SD020.jpg
181.012769300025	3.00071870000102	decision	2.28217220003717	left	D	DD031.jpg	DD032.jpg
184.562761700014	1.01664160005748	loss	NaN	n/a	n/a	DD031.jpg	DD032.jpg
189.396064100089	3.00158999999985	decision	2.03345780004747	right	S	SD005.jpg	SD006.jpg
192.946144100046	1.01667809998617	win	NaN	n/a	n/a	SD005.jpg	SD006.jpg
195.712917000055	3.00142510002479	decision	2.28217269992456	left	D	DD019.jpg	DD020.jpg
199.26287960005	1.00004129996523	win	NaN	n/a	n/a	DD019.jpg	DD020.jpg
206.179622100201	3.00178919988684	decision	1.5328703999985	left	S	SD013.jpg	SD014.jpg
209.72935899999	1.00053190020844	loss	NaN	n/a	n/a	SD013.jpg	SD014.jpg
216.646681000013	3.00054590008222	decision	1.78306350018829	right	S	SD031.jpg	SD032.jpg
220.196245600004	1.00019880011678	loss	NaN	n/a	n/a	SD031.jpg	SD032.jpg
225.029921700014	3.00083390017971	decision	2.03220110014081	right	D	DD039.jpg	DD040.jpg
228.579623400001	1.01664490019903	loss	NaN	n/a	n/a	DD039.jpg	DD040.jpg
231.32992639998	3.00129540008493	decision	2.28240780020133	right	D	DD005.jpg	DD006.jpg
234.879747800063	1.00030210008845	loss	NaN	n/a	n/a	DD005.jpg	DD006.jpg
241.813145000022	3.00176850007847	decision	2.28261009999551	left	S	SD037.jpg	SD038.jpg
245.363407599973	1.01668400014751	loss	NaN	n/a	n/a	SD037.jpg	SD038.jpg
248.113197700121	3.00185079989024	decision	1.78299059998244	left	S	SD039.jpg	SD040.jpg
251.663583600195	1.01682869996876	win	NaN	n/a	n/a	SD039.jpg	SD040.jpg
254.413731300039	3.00233280006796	decision	2.03194870008156	right	S	SD033.jpg	SD034.jpg
257.963159500156	1.00006609992124	loss	NaN	n/a	n/a	SD033.jpg	SD034.jpg
260.697005999973	3.00092460005544	decision	1.53228890011087	right	D	DD013.jpg	DD014.jpg
264.246904100059	1.00000980007462	win	NaN	n/a	n/a	DD013.jpg	DD014.jpg
269.063614099985	3.00144850020297	decision	2.28243770007975	left	S	SD001.jpg	SD002.jpg
272.613944299985	1.01617830013856	win	NaN	n/a	n/a	SD001.jpg	SD002.jpg
275.363532399992	3.00151980016381	decision	2.55055300006643	right	D	DD003.jpg	DD004.jpg
278.913485400146	1.00011150003411	win	NaN	n/a	n/a	DD003.jpg	DD004.jpg
283.730276799994	3.00115310004912	decision	2.03308210009709	left	S	SD003.jpg	SD004.jpg
287.280276100151	1.0001286000479	win	NaN	n/a	n/a	SD003.jpg	SD004.jpg
294.196845600149	3.0016593998298	decision	2.28321829997003	right	D	DD025.jpg	DD026.jpg
297.747370600002	1.01652580010705	win	NaN	n/a	n/a	DD025.jpg	DD026.jpg
304.697248700075	3.00140900001861	decision	2.03249999997206	left	S	SD035.jpg	SD036.jpg
308.247374600032	1.01653330004774	win	NaN	n/a	n/a	SD035.jpg	SD036.jpg
310.997328100028	3.00079290010035	decision	1.78319049999118	right	D	DD011.jpg	DD012.jpg
314.547479800181	1.01661419984885	loss	NaN	n/a	n/a	DD011.jpg	DD012.jpg
317.297537900042	3.00127979996614	decision	2.28309809998609	left	S	SD021.jpg	SD022.jpg
320.847276000073	1.00023979996331	win	NaN	n/a	n/a	SD021.jpg	SD022.jpg
325.680687700165	3.00139639992267	decision	2.03339220001362	left	D	DD029.jpg	DD030.jpg
329.230963899987	1.01616190001369	loss	NaN	n/a	n/a	DD029.jpg	DD030.jpg
