onset	duration	trial_type	rt	resp	gender	image_left	image_right
0.606852099997923	3.00164749997202	decision	2.549717199988663	left	S	SD001.jpg	SD002.jpg
4.15685270004906	1.0000687999418	win	n/a	n/a	n/a	SD001.jpg	SD002.jpg
11.0901840999722	3.00149040005635	decision	1.7827591000823304	right	S	SD003.jpg	SD004.jpg
14.6401223000139	1.00029430002905	loss	n/a	n/a	n/a	SD003.jpg	SD004.jpg
17.3567989000585	3.00179999996908	decision	1.782964399899356	left	S	SD005.jpg	SD006.jpg
20.9066536000464	1.00015069998335	win	n/a	n/a	n/a	SD005.jpg	SD006.jpg
23.623463200056	3.00144049990922	decision	1.7832297999411821	left	D	DD001.jpg	DD002.jpg
27.1734008999774	1.00041740003508	win	n/a	n/a	n/a	DD001.jpg	DD002.jpg
32.0067135000136	3.00102530000731	decision	1.5327202000189573	right	D	DD003.jpg	DD004.jpg
35.5566882999847	1.0168237000471	loss	n/a	n/a	n/a	DD003.jpg	DD004.jpg
42.4900868999539	3.00111310009379	decision	2.283458400052041	left	S	SD007.jpg	SD008.jpg
46.0402548999991	1.01641859998927	loss	n/a	n/a	n/a	SD007.jpg	SD008.jpg
50.889890099992	3.00073460000567	decision	1.7831556999590248	left	S	SD009.jpg	SD010.jpg
54.4400483999634	1.01652549998835	win	n/a	n/a	n/a	SD009.jpg	SD010.jpg
59.2900668999646	3.00110430002678	decision	2.799622500082478	left	D	DD005.jpg	DD006.jpg
62.8399435000028	1.00000869994983	loss	n/a	n/a	n/a	DD005.jpg	DD006.jpg
65.5733298000414	3.00088459998369	decision	2.0333210999378935	left	D	DD007.jpg	DD008.jpg
69.1236614000518	1.0009877999546	win	n/a	n/a	n/a	DD007.jpg	DD008.jpg
71.8565880999668	3.00174109998625	decision	2.2826846000971273	right	D	DD009.jpg	DD010.jpg
75.4065741000231	1.01682010001969	win	n/a	n/a	n/a	DD009.jpg	DD010.jpg
78.140056299977	3.00171179999597	decision	2.282363099977374	left	D	DD011.jpg	DD012.jpg
81.6898514999775	1.00016010005493	loss	n/a	n/a	n/a	DD011.jpg	DD012.jpg
86.5233949000249	3.00107969995588	decision	1.5335344999330118	left	S	SD011.jpg	SD012.jpg
90.0737001999514	1.01592910010368	loss	n/a	n/a	n/a	SD011.jpg	SD012.jpg
92.8064815000398	3.00205979996826	decision	1.7827432999620214	right	S	SD013.jpg	SD014.jpg
96.3565020000096	1.01666359999217	win	n/a	n/a	n/a	SD013.jpg	SD014.jpg
103.289961599978	3.00114299997222	decision	2.282588200061582	right	S	SD015.jpg	SD016.jpg
106.839768599952	1.00001000007614	win	n/a	n/a	n/a	SD015.jpg	SD016.jpg
109.573459699983	3.00114419998135	decision	1.7821041999850422	left	D	DD013.jpg	DD014.jpg
113.123154900037	1.00005609996151	win	n/a	n/a	n/a	DD013.jpg	DD014.jpg
120.056502099964	3.001831300091	decision	1.2843406000174582	right	S	SD017.jpg	SD018.jpg
123.606426400016	1.00022960000206	win	n/a	n/a	n/a	SD017.jpg	SD018.jpg
128.456414900022	2.9999691999983	decision	2.0340470999944955	left	D	DD015.jpg	DD016.jpg
132.006191399996	1.00046010001097	win	n/a	n/a	n/a	DD015.jpg	DD016.jpg
136.856465099961	3.00078840006609	decision	1.7825896000722423	left	S	SD019.jpg	SD020.jpg
140.406351599959	1.01689480000641	win	n/a	n/a	n/a	SD019.jpg	SD020.jpg
145.239713200019	3.00202519993763	decision	1.7829588999738917	left	D	DD017.jpg	DD018.jpg
148.79004620004	1.01623189996462	win	n/a	n/a	n/a	DD017.jpg	DD018.jpg
162.039662900032	3.00144130003173	decision	1.533702699933201	left	S	SD021.jpg	SD022.jpg
165.589707899955	1.01659960008692	loss	n/a	n/a	n/a	SD021.jpg	SD022.jpg
172.522995600011	3.00148390000686	decision	1.7825568999396637	left	S	SD023.jpg	SD024.jpg
176.072998999967	1.01653900009114	win	n/a	n/a	n/a	SD023.jpg	SD024.jpg
183.006234499975	3.0017635000404	decision	2.283478799974546	left	S	SD025.jpg	SD026.jpg
186.556146100047	1.00000529992394	loss	n/a	n/a	n/a	SD025.jpg	SD026.jpg
191.389377800049	3.00161309994292	decision	1.7838832999113947	left	S	SD027.jpg	SD028.jpg
194.939458600013	1.00003240001388	loss	n/a	n/a	n/a	SD027.jpg	SD028.jpg
197.689647700056	3.00122089998331	decision	2.5336703999200836	left	D	DD019.jpg	DD020.jpg
201.239447299973	1.01661739998963	loss	n/a	n/a	n/a	DD019.jpg	DD020.jpg
203.989486500039	3.00139380001929	decision	1.78292009991128	right	D	DD021.jpg	DD022.jpg
207.539385500015	1.00005339994095	win	n/a	n/a	n/a	DD021.jpg	DD022.jpg
214.473176400061	3.00057379994541	decision	2.2822750998893753	right	S	SD029.jpg	SD030.jpg
218.022781200008	1.01661469996907	loss	n/a	n/a	n/a	SD029.jpg	SD030.jpg
224.95616870001	3.00169279996771	decision	2.0326251999940723	left	S	SD031.jpg	SD032.jpg
228.506081399973	1.01657960005105	win	n/a	n/a	n/a	SD031.jpg	SD032.jpg
233.33946519997	3.00181270006578	decision	1.782984200050123	left	D	DD023.jpg	DD024.jpg
236.889300000039	1.01686689991038	loss	n/a	n/a	n/a	DD023.jpg	DD024.jpg
239.622845100006	3.0005084000295	decision	2.033056700020097	left	D	DD025.jpg	DD026.jpg
243.172666799976	1.00019030005205	win	n/a	n/a	n/a	DD025.jpg	DD026.jpg
247.989251299994	3.03895119996741	decision-missed	n/a	n/a	D	DD027.jpg	DD028.jpg
251.573062099982	1.01619960006792	loss	n/a	n/a	n/a	DD027.jpg	DD028.jpg
254.322740899981	3.00062080007046	decision	1.532361700083129	right	S	SD033.jpg	SD034.jpg
257.872600900009	1.00001459999476	loss	n/a	n/a	n/a	SD033.jpg	SD034.jpg
260.606074600015	3.00118130003102	decision	1.2826401999918744	right	S	SD035.jpg	SD036.jpg
264.156241500052	1.01660500001162	loss	n/a	n/a	n/a	SD035.jpg	SD036.jpg
266.906063599978	3.00126889999956	decision	1.7833101999713108	right	S	SD037.jpg	SD038.jpg
270.456080400036	1.00099420000333	win	n/a	n/a	n/a	SD037.jpg	SD038.jpg
277.389222700032	3.00154760002624	decision	1.5323723999317735	right	D	DD029.jpg	DD030.jpg
280.939191899961	1.01666800002567	loss	n/a	n/a	n/a	DD029.jpg	DD030.jpg
283.689209399978	3.00107770005707	decision	1.2831469000084326	left	D	DD031.jpg	DD032.jpg
287.239236699999	1.01654029998463	loss	n/a	n/a	n/a	DD031.jpg	DD032.jpg
292.090268700034	3.00032300001476	decision	1.7821154999546707	left	D	DD033.jpg	DD034.jpg
295.639110199991	1.00003790005576	win	n/a	n/a	n/a	DD033.jpg	DD034.jpg
302.572589699994	3.00078280002344	decision	1.2827937999973074	right	S	SD039.jpg	SD040.jpg
306.122382899979	1.00002620008308	loss	n/a	n/a	n/a	SD039.jpg	SD040.jpg
313.072624100023	2.99988629994914	decision	2.0331672999309376	right	D	DD035.jpg	DD036.jpg
316.62235109997	1.00002390006557	win	n/a	n/a	n/a	DD035.jpg	DD036.jpg
319.355792399962	3.00067249999847	decision	1.533169100061059	right	D	DD037.jpg	DD038.jpg
322.90569299995	1.00026510003954	loss	n/a	n/a	n/a	DD037.jpg	DD038.jpg
325.639128900017	3.00103779998608	decision	1.7823204000014812	right	D	DD039.jpg	DD040.jpg
329.189142200048	1.01650249992963	loss	n/a	n/a	n/a	DD039.jpg	DD040.jpg
