onset	duration	trial_type	rt	resp	gender	image_left	image_right
0.641874400011147	3.00125760000083	decision	1.78259719999915	left	M	MF001.jpg	MF002.jpg
4.19193830000586	1.01656429999275	win	NaN	n/a	n/a	MF001.jpg	MF002.jpg
11.175364499999	3.00101400000858	decision	1.03235380000842	left	M	MF003.jpg	MF004.jpg
14.7252841000009	1.01656260000891	loss	NaN	n/a	n/a	MF003.jpg	MF004.jpg
17.5085924000014	3.00110380000842	decision	1.03410080001049	left	M	MF005.jpg	MF006.jpg
21.0585596000019	1.00005840000813	win	NaN	n/a	n/a	MF005.jpg	MF006.jpg
23.8085210999998	3.00130040000658	decision	1.03319600000395	left	F	FF001.jpg	FF002.jpg
27.3588247000007	1.00033160000748	win	NaN	n/a	n/a	FF001.jpg	FF002.jpg
32.2085851000011	3.00124630000209	decision	1.53335350000998	left	F	FF003.jpg	FF004.jpg
35.7585710999992	1.00017600000137	loss	NaN	n/a	n/a	FF003.jpg	FF004.jpg
42.70860730001	3.00057489999745	decision	1.03303449999657	left	M	MF007.jpg	MF008.jpg
46.2585811000026	1.01676140000927	loss	NaN	n/a	n/a	MF007.jpg	MF008.jpg
51.1251840000041	3.00221109999984	decision	1.0336682000052	right	M	MF009.jpg	MF010.jpg
54.6752998000011	1.00009929999942	win	NaN	n/a	n/a	MF009.jpg	MF010.jpg
59.5252110000001	3.00148390000686	decision	1.28249160000996	right	F	FF005.jpg	FF006.jpg
63.0753706000105	1.01644599999418	loss	NaN	n/a	n/a	FF005.jpg	FF006.jpg
65.8419310000027	3.00187340000411	decision	1.53356290000374	left	F	FF007.jpg	FF008.jpg
69.3918176000006	0.999999400009983	win	NaN	n/a	n/a	FF007.jpg	FF008.jpg
72.1586373000027	3.00222290000238	decision	1.28299130000232	left	F	FF009.jpg	FF010.jpg
75.7086439000122	1.01653089998581	win	NaN	n/a	n/a	FF009.jpg	FF010.jpg
78.475413600012	3.00094309999258	decision	1.53332279999449	left	F	FF011.jpg	FF012.jpg
82.0251903000026	1.01674049999565	loss	NaN	n/a	n/a	FF011.jpg	FF012.jpg
86.8918455000094	3.00041969999438	decision	1.28400329999567	left	M	MF011.jpg	MF012.jpg
90.4419760000019	1.01683170000615	loss	NaN	n/a	n/a	MF011.jpg	MF012.jpg
93.2085808999982	3.00212710000051	decision	1.28296570001112	left	M	MF013.jpg	MF014.jpg
96.758510700005	1.01656560000265	win	NaN	n/a	n/a	MF013.jpg	MF014.jpg
103.725206000003	3.00053079999634	decision	1.28302560000157	left	M	MF015.jpg	MF016.jpg
107.275284500007	1.01642630000424	win	NaN	n/a	n/a	MF015.jpg	MF016.jpg
110.041568300003	3.00118590000784	decision	1.53328780000447	left	F	FF013.jpg	FF014.jpg
113.591784500008	1.00009449999197	win	NaN	n/a	n/a	FF013.jpg	FF014.jpg
120.54175850001	3.00208289999864	decision	1.28284759999951	left	M	MF017.jpg	MF018.jpg
124.091653200012	1.01680669999041	win	NaN	n/a	n/a	MF017.jpg	MF018.jpg
128.958709400002	3.00117760000285	decision	1.53345299999637	left	F	FF015.jpg	FF016.jpg
132.50843300001	1.00003329999163	win	NaN	n/a	n/a	FF015.jpg	FF016.jpg
137.358518699999	3.00189290000708	decision	1.28331890000845	left	M	MF019.jpg	MF020.jpg
140.908335800006	1.00006289999874	win	NaN	n/a	n/a	MF019.jpg	MF020.jpg
145.758402200008	3.00146600000153	decision	1.28345599999011	left	F	FF017.jpg	FF018.jpg
149.308628300001	1.01677580000251	win	NaN	n/a	n/a	FF017.jpg	FF018.jpg
162.591709400003	3.00103470000613	decision	1.28300979999767	left	M	MF021.jpg	MF022.jpg
166.141569600004	1.01673590000428	loss	NaN	n/a	n/a	MF021.jpg	MF022.jpg
173.108408	3.00141760001134	decision	1.28339660000347	left	M	MF023.jpg	MF024.jpg
176.658507800006	1.01651269999275	win	NaN	n/a	n/a	MF023.jpg	MF024.jpg
183.625136100003	3.00116719999642	decision	1.5324413000053	left	M	MF025.jpg	MF026.jpg
187.174909900001	1.01716480001051	loss	NaN	n/a	n/a	MF025.jpg	MF026.jpg
192.058427900003	3.0021407000022	decision	1.28294580000511	left	M	MF027.jpg	MF028.jpg
195.608254700011	1.00008009999874	loss	NaN	n/a	n/a	MF027.jpg	MF028.jpg
198.358321100008	3.00147469999501	decision	2.03316799999448	left	F	FF019.jpg	FF020.jpg
201.908242999998	1.00011079999967	loss	NaN	n/a	n/a	FF019.jpg	FF020.jpg
204.675100600012	3.00136309998925	decision	1.28405719999864	left	F	FF021.jpg	FF022.jpg
208.225031300011	1.0165408999892	win	NaN	n/a	n/a	FF021.jpg	FF022.jpg
215.1916967	3.00098240000079	decision	1.28305990000081	left	M	MF029.jpg	MF030.jpg
218.741609500008	1.00016119999054	loss	NaN	n/a	n/a	MF029.jpg	MF030.jpg
225.691667100007	3.00182449999556	decision	1.03268809999281	right	M	MF031.jpg	MF032.jpg
229.241699500009	1.00017439998919	win	NaN	n/a	n/a	MF031.jpg	MF032.jpg
234.091778000002	3.00198960000125	decision	1.2828875999985	right	F	FF023.jpg	FF024.jpg
237.641553699999	1.01663280000503	loss	NaN	n/a	n/a	FF023.jpg	FF024.jpg
240.40829620001	3.00156089999655	decision	1.2825082999916	right	F	FF025.jpg	FF026.jpg
243.958221599998	1.00003000001016	win	NaN	n/a	n/a	FF025.jpg	FF026.jpg
248.825063199998	3.00156760000391	decision	2.28280939999968	left	F	FF027.jpg	FF028.jpg
252.374789499998	1.00018040000577	loss	NaN	n/a	n/a	FF027.jpg	FF028.jpg
255.12480830001	3.00209449999966	decision	1.53260439999576	right	M	MF033.jpg	MF034.jpg
258.6747799	1.00001970000449	loss	NaN	n/a	n/a	MF033.jpg	MF034.jpg
261.441396900002	3.00074860001041	decision	1.28321950000827	left	M	MF035.jpg	MF036.jpg
264.991423200001	1.00002669999958	loss	NaN	n/a	n/a	MF035.jpg	MF036.jpg
267.741482500001	3.00213600001007	decision	1.53381990001071	left	M	MF037.jpg	MF038.jpg
271.291506599999	1.01645250000001	win	NaN	n/a	n/a	MF037.jpg	MF038.jpg
278.27482630001	3.00156879999849	decision	1.78293889999622	left	F	FF029.jpg	FF030.jpg
281.824653800009	1.01674880000064	loss	NaN	n/a	n/a	FF029.jpg	FF030.jpg
284.591576700012	3.00067999999737	decision	1.53306809999049	right	F	FF031.jpg	FF032.jpg
288.14138880001	1.00011909999012	loss	NaN	n/a	n/a	FF031.jpg	FF032.jpg
292.991550600011	3.0010581999959	decision	1.28319360000023	left	F	FF033.jpg	FF034.jpg
296.54157110001	1.01648629999545	win	NaN	n/a	n/a	FF033.jpg	FF034.jpg
303.508212100001	3.0019270000048	decision	1.53277089999756	left	M	MF039.jpg	MF040.jpg
307.0579918	1.00009860000864	loss	NaN	n/a	n/a	MF039.jpg	MF040.jpg
314.008461900012	3.00077939999755	decision	1.53329629999644	right	F	FF035.jpg	FF036.jpg
317.558098100009	1.01670609999564	win	NaN	n/a	n/a	FF035.jpg	FF036.jpg
320.324678300007	3.00205690000439	decision	1.5338339000009	right	F	FF037.jpg	FF038.jpg
323.874630899998	1.01670930000546	loss	NaN	n/a	n/a	FF037.jpg	FF038.jpg
326.658138300001	3.00183390000893	decision	1.5328334000078	left	F	FF039.jpg	FF040.jpg
330.20834360001	1.01664029998938	loss	NaN	n/a	n/a	FF039.jpg	FF040.jpg
