onset	duration	trial_type	rt	resp	gender	image_left	image_right
0.608945900006802	3.00096819999453	decision	1.53310629999032	left	S	SD001.jpg	SD002.jpg
4.15872490000038	1.01677940000081	win	NaN	n/a	n/a	SD001.jpg	SD002.jpg
11.0921940999979	3.00165299999935	decision	1.78325930000574	right	S	SD003.jpg	SD004.jpg
14.6420784000074	1.01656940000248	loss	NaN	n/a	n/a	SD003.jpg	SD004.jpg
17.3761448000005	3.0013930999994	decision	2.03211949999968	right	S	SD005.jpg	SD006.jpg
20.9255514999968	1.00036190000537	win	NaN	n/a	n/a	SD005.jpg	SD006.jpg
23.6425824000034	3.00190079999447	decision	1.78252399999474	left	D	DD001.jpg	DD002.jpg
27.1923379000073	1.01668859999336	win	NaN	n/a	n/a	DD001.jpg	DD002.jpg
32.04237190001	3.00126989999262	decision	1.53314429998863	right	D	DD003.jpg	DD004.jpg
35.5923200999969	1.00008140000864	loss	NaN	n/a	n/a	DD003.jpg	DD004.jpg
42.5091687000095	3.00105789999361	decision	1.78253039999981	right	S	SD007.jpg	SD008.jpg
46.0591698000062	1.00001039999188	loss	NaN	n/a	n/a	SD007.jpg	SD008.jpg
50.8928133000009	3.00140239999746	decision	1.53246170000057	left	S	SD009.jpg	SD010.jpg
54.4425562000106	1.00014739998733	win	NaN	n/a	n/a	SD009.jpg	SD010.jpg
59.2760156000004	3.00149450000026	decision	2.28263610000431	left	D	DD005.jpg	DD006.jpg
62.8260194000031	1.00003589999687	loss	NaN	n/a	n/a	DD005.jpg	DD006.jpg
65.5594889000058	3.00112319999607	decision	2.03307019999193	left	D	DD007.jpg	DD008.jpg
69.1094546000095	1.01685449999059	win	NaN	n/a	n/a	DD007.jpg	DD008.jpg
71.8428808000026	3.00037510000402	decision	1.53300110000418	right	D	DD009.jpg	DD010.jpg
75.3928220000089	1.00031119999767	win	NaN	n/a	n/a	DD009.jpg	DD010.jpg
78.1101417000027	3.0013895000011	decision	1.78204010000627	right	D	DD011.jpg	DD012.jpg
81.6598271000112	1.01660639999318	loss	NaN	n/a	n/a	DD011.jpg	DD012.jpg
86.5099609000026	3.00095299999521	decision	2.03329429999576	right	S	SD011.jpg	SD012.jpg
90.0597187000094	1.00020719999156	loss	NaN	n/a	n/a	SD011.jpg	SD012.jpg
92.7933521000086	3.00200239999685	decision	1.7827638000017	right	S	SD013.jpg	SD014.jpg
96.3431104000047	1.0002669999958	win	NaN	n/a	n/a	SD013.jpg	SD014.jpg
103.25989880001	3.00069019998773	decision	1.53315350000048	left	S	SD015.jpg	SD016.jpg
106.810110100007	1.0164514999924	win	NaN	n/a	n/a	SD015.jpg	SD016.jpg
109.56029780001	3.00092859999859	decision	1.78329870000016	right	D	DD013.jpg	DD014.jpg
113.109957200009	1.00000829999044	win	NaN	n/a	n/a	DD013.jpg	DD014.jpg
120.043541999999	3.00093540000671	decision	1.53248510000412	left	S	SD017.jpg	SD018.jpg
123.593600100008	1.01700249999703	win	NaN	n/a	n/a	SD017.jpg	SD018.jpg
128.443771899998	3.00076350000745	decision	1.53344210000068	right	D	DD015.jpg	DD016.jpg
131.9937125	1.00004820000322	win	NaN	n/a	n/a	DD015.jpg	DD016.jpg
136.843914600002	3.00133980000101	decision	1.28319679999549	left	S	SD019.jpg	SD020.jpg
140.393812399998	1.00002680000034	win	NaN	n/a	n/a	SD019.jpg	SD020.jpg
145.210577999998	3.00154340000881	decision	1.53292170001077	right	D	DD017.jpg	DD018.jpg
148.76072630001	1.01644379999198	win	NaN	n/a	n/a	DD017.jpg	DD018.jpg
162.010775800009	3.00105659999826	decision	1.53330640000058	left	S	SD021.jpg	SD022.jpg
165.560827300011	1.01661569999123	loss	NaN	n/a	n/a	SD021.jpg	SD022.jpg
172.49425090001	3.00093929999275	decision	1.03224139999656	left	S	SD023.jpg	SD024.jpg
176.043942300006	1.0002136999974	win	NaN	n/a	n/a	SD023.jpg	SD024.jpg
182.960941400001	3.00085379999655	decision	1.28340210000169	right	S	SD025.jpg	SD026.jpg
186.511072399997	1.01638220000314	loss	NaN	n/a	n/a	SD025.jpg	SD026.jpg
191.361217400001	3.00088000000687	decision	1.03230130000156	right	S	SD027.jpg	SD028.jpg
194.910905299999	1.01651570000104	loss	NaN	n/a	n/a	SD027.jpg	SD028.jpg
197.677701799999	3.00106720000622	decision	1.28374240000267	left	D	DD019.jpg	DD020.jpg
201.227947799998	1.01654820000113	loss	NaN	n/a	n/a	DD019.jpg	DD020.jpg
203.978010300008	3.00192779999634	decision	1.03286809999554	right	D	DD021.jpg	DD022.jpg
207.5280318	1.01631560000533	win	NaN	n/a	n/a	DD021.jpg	DD022.jpg
214.477820800006	3.00189830000454	decision	1.28259780000371	left	S	SD029.jpg	SD030.jpg
218.028265900008	1.00061319999804	loss	NaN	n/a	n/a	SD029.jpg	SD030.jpg
224.944736100006	3.00208409999323	decision	1.03357159999723	left	S	SD031.jpg	SD032.jpg
228.49496180001	1.01624569999694	win	NaN	n/a	n/a	SD031.jpg	SD032.jpg
233.328305800009	3.00155819999054	decision	1.28221409999242	right	D	DD023.jpg	DD024.jpg
236.877969100009	1.00013169999875	loss	NaN	n/a	n/a	DD023.jpg	DD024.jpg
239.595518600006	3.00179480000224	decision	1.03235729999142	right	D	DD025.jpg	DD026.jpg
243.145042500008	1.01632909999171	win	NaN	n/a	n/a	DD025.jpg	DD026.jpg
247.978441500003	3.00103270000545	decision	1.03230099999928	right	D	DD027.jpg	DD028.jpg
251.528198	1.00001350000093	loss	NaN	n/a	n/a	DD027.jpg	DD028.jpg
254.245025000011	3.00150269998994	decision	1.03288469999097	left	S	SD033.jpg	SD034.jpg
257.795116599998	1.00039150001248	loss	NaN	n/a	n/a	SD033.jpg	SD034.jpg
260.528455300009	3.0014388999989	decision	1.0331567999965	left	S	SD035.jpg	SD036.jpg
264.078601200003	1.01666019999539	loss	NaN	n/a	n/a	SD035.jpg	SD036.jpg
266.828427900007	3.001935399996	decision	1.03277449999587	right	S	SD037.jpg	SD038.jpg
270.378422300011	1.01674019999336	win	NaN	n/a	n/a	SD037.jpg	SD038.jpg
277.328494500005	3.00156999999308	decision	1.28374759999861	right	D	DD029.jpg	DD030.jpg
280.878406200005	1.00012850000348	loss	NaN	n/a	n/a	DD029.jpg	DD030.jpg
283.612220700001	3.00115080000251	decision	1.03251669999736	left	D	DD031.jpg	DD032.jpg
287.162049400009	1.01646329999494	loss	NaN	n/a	n/a	DD031.jpg	DD032.jpg
292.012081000008	3.00189339999633	decision	1.03256729998975	right	D	DD033.jpg	DD034.jpg
295.562072700006	1.00006360000407	win	NaN	n/a	n/a	DD033.jpg	DD034.jpg
302.495644499999	3.00257229999988	decision	2.28297500000917	right	S	SD039.jpg	SD040.jpg
306.045736800006	1.01655000000028	loss	NaN	n/a	n/a	SD039.jpg	SD040.jpg
312.9958797	3.00041950000741	decision	1.033093799997	right	D	DD035.jpg	DD036.jpg
316.545572100003	1.01692690000345	win	NaN	n/a	n/a	DD035.jpg	DD036.jpg
319.295873700001	3.00152990000788	decision	1.03336040000431	left	D	DD037.jpg	DD038.jpg
322.845919800006	1.01662470000156	loss	NaN	n/a	n/a	DD037.jpg	DD038.jpg
325.595826000004	3.00149290000263	decision	1.03372320000199	right	D	DD039.jpg	DD040.jpg
329.146001300003	1.01664450000681	loss	NaN	n/a	n/a	DD039.jpg	DD040.jpg
