onset	duration	trial_type	rt	resp	gender	image_left	image_right
0.612910800147802	3.00186959980056	decision	2.2997816000133753	right	S	SD001.jpg	SD002.jpg
4.16284590028226	1.00012899981812	win	n/a	n/a	n/a	SD001.jpg	SD002.jpg
11.1129576000385	3.00068990001455	decision	2.5503516998142004	right	S	SD003.jpg	SD004.jpg
14.6631840998307	1.01655870024115	loss	n/a	n/a	n/a	SD003.jpg	SD004.jpg
17.4128862000071	3.0011240998283	decision	2.5343467998318374	left	S	SD005.jpg	SD006.jpg
20.9629485001788	1.00020670006052	win	n/a	n/a	n/a	SD005.jpg	SD006.jpg
23.6963797998615	3.00139600038528	decision	2.0326143000274897	left	D	DD001.jpg	DD002.jpg
27.2461385000497	1.00020360015333	win	n/a	n/a	n/a	DD001.jpg	DD002.jpg
32.0799640999176	3.00096020009369	decision	1.2822207999415696	left	D	DD003.jpg	DD004.jpg
35.6300266999751	1.01650919998065	loss	n/a	n/a	n/a	DD003.jpg	DD004.jpg
42.5965255000629	3.00193470017985	decision	1.282615500036627	right	S	SD007.jpg	SD008.jpg
46.1466108001769	1.01643069973215	loss	n/a	n/a	n/a	SD007.jpg	SD008.jpg
50.9964943001978	3.00096189975739	decision	1.034076299984008	left	S	SD009.jpg	SD010.jpg
54.5465454002842	1.00004529999569	win	n/a	n/a	n/a	SD009.jpg	SD010.jpg
59.3967669000849	3.00130310002714	decision	2.0336655997671187	left	D	DD005.jpg	DD006.jpg
62.9467616002075	1.01674370002002	loss	n/a	n/a	n/a	DD005.jpg	DD006.jpg
65.6967481998727	3.00189590035006	decision	1.2836955999955535	right	D	DD007.jpg	DD008.jpg
69.2467307001352	1.00023930007592	win	n/a	n/a	n/a	DD007.jpg	DD008.jpg
71.9803809998557	3.00063020037487	decision	1.5323656001128256	right	D	DD009.jpg	DD010.jpg
75.5302120000124	1.00010660011321	win	n/a	n/a	n/a	DD009.jpg	DD010.jpg
78.2637697998434	3.00112660042942	decision	1.5322469002567232	right	D	DD011.jpg	DD012.jpg
81.8136309999973	1.01637750025839	loss	n/a	n/a	n/a	DD011.jpg	DD012.jpg
86.7471985002048	3.00101049989462	decision	1.033197999931872	left	S	SD011.jpg	SD012.jpg
90.2973962998949	1.01632810011506	loss	n/a	n/a	n/a	SD011.jpg	SD012.jpg
93.0471831001341	3.00125420000404	decision	1.2822002000175416	right	S	SD013.jpg	SD014.jpg
96.5972090000287	1.00000320002437	win	n/a	n/a	n/a	SD013.jpg	SD014.jpg
103.530445700046	3.00067600002512	decision	1.5332030998542905	right	S	SD015.jpg	SD016.jpg
107.080592500046	1.01645400002599	win	n/a	n/a	n/a	SD015.jpg	SD016.jpg
109.830990700051	3.00152860023081	decision	1.2831831998191774	right	D	DD013.jpg	DD014.jpg
113.380617599934	1.00011310027912	win	n/a	n/a	n/a	DD013.jpg	DD014.jpg
120.313953000121	3.0012701000087	decision	1.283211899921298	right	S	SD017.jpg	SD018.jpg
123.863842200022	1.0000614002347	win	n/a	n/a	n/a	SD017.jpg	SD018.jpg
128.71394070005	3.00079229986295	decision	1.28356060013175	right	D	DD015.jpg	DD016.jpg
132.264579600189	1.01599099999294	win	n/a	n/a	n/a	DD015.jpg	DD016.jpg
137.130966000259	3.00076129985973	decision	1.2821721998043358	right	S	SD019.jpg	SD020.jpg
140.680690399837	1.00018130009994	win	n/a	n/a	n/a	SD019.jpg	SD020.jpg
145.514181300066	3.00116890016943	decision	1.283394900150597	right	D	DD017.jpg	DD018.jpg
149.064324700274	1.01635949965566	win	n/a	n/a	n/a	DD017.jpg	DD018.jpg
162.347748800181	3.00128819979727	decision	1.2836205000057817	right	S	SD021.jpg	SD022.jpg
165.897834199946	1.01663600001484	loss	n/a	n/a	n/a	SD021.jpg	SD022.jpg
172.847941100132	3.00197179988027	decision	1.283884699922055	left	S	SD023.jpg	SD024.jpg
176.397714099847	1.00018660025671	win	n/a	n/a	n/a	SD023.jpg	SD024.jpg
183.331516500097	3.0006376998499	decision	1.2822874998673797	left	S	SD025.jpg	SD026.jpg
186.881051700097	1.00027129985392	loss	n/a	n/a	n/a	SD025.jpg	SD026.jpg
191.715083700139	3.00091309985146	decision	1.2831160998903215	right	S	SD027.jpg	SD028.jpg
195.264552900102	1.01680199988186	loss	n/a	n/a	n/a	SD027.jpg	SD028.jpg
198.031272999942	3.00081810029224	decision	1.284042099956423	left	D	DD019.jpg	DD020.jpg
201.581069299951	1.00010700011626	loss	n/a	n/a	n/a	DD019.jpg	DD020.jpg
204.314596400131	3.00088339997455	decision	1.2830206998623908	right	D	DD021.jpg	DD022.jpg
207.864827699959	1.01669589988887	win	n/a	n/a	n/a	DD021.jpg	DD022.jpg
214.89850390004	3.00075590005144	decision	1.2831778000108898	right	S	SD029.jpg	SD030.jpg
218.447915799916	1.00035430025309	loss	n/a	n/a	n/a	SD029.jpg	SD030.jpg
225.381647800095	3.00100510008633	decision	1.2828941000625491	left	S	SD031.jpg	SD032.jpg
228.931714300066	1.01641649985686	win	n/a	n/a	n/a	SD031.jpg	SD032.jpg
233.781793599948	3.03883570013568	decision-missed	n/a	n/a	D	DD023.jpg	DD024.jpg
237.364918100182	1.00004209997132	loss	n/a	n/a	n/a	DD023.jpg	DD024.jpg
240.09842649987	3.00130360014737	decision	1.5323425000533462	right	D	DD025.jpg	DD026.jpg
243.648425899912	1.00018090009689	win	n/a	n/a	n/a	DD025.jpg	DD026.jpg
248.481586799957	3.00177800003439	decision	1.284120799973607	right	D	DD027.jpg	DD028.jpg
252.031665300019	1.00023780018091	loss	n/a	n/a	n/a	DD027.jpg	DD028.jpg
254.815065700095	3.00138929998502	decision	1.0332057997584343	left	S	SD033.jpg	SD034.jpg
258.365116899833	1.00020200014114	loss	n/a	n/a	n/a	SD033.jpg	SD034.jpg
261.098544999957	3.00111850025132	decision	1.282444499898702	right	S	SD035.jpg	SD036.jpg
264.648681399878	1.01655070018023	loss	n/a	n/a	n/a	SD035.jpg	SD036.jpg
267.465283799917	3.00102020008489	decision	1.0326486001722515	left	S	SD037.jpg	SD038.jpg
271.015216799919	0.999997000209987	win	n/a	n/a	n/a	SD037.jpg	SD038.jpg
277.948615400121	3.00052919983864	decision	1.0333707998506725	left	D	DD029.jpg	DD030.jpg
281.498801900074	1.01665659993887	loss	n/a	n/a	n/a	DD029.jpg	DD030.jpg
284.249299299903	3.00114480033517	decision	1.0324055003002286	right	D	DD031.jpg	DD032.jpg
287.798890099861	1.01660610036924	loss	n/a	n/a	n/a	DD031.jpg	DD032.jpg
292.649401600007	3.00121860019863	decision	1.033374700229615	left	D	DD033.jpg	DD034.jpg
296.19871310005	1.01670579984784	win	n/a	n/a	n/a	DD033.jpg	DD034.jpg
303.149016200099	3.00102559989318	decision	1.2835602997802198	left	S	SD039.jpg	SD040.jpg
306.698833399918	1.00023319991305	loss	n/a	n/a	n/a	SD039.jpg	SD040.jpg
313.648856000043	3.0019292999059	decision	1.783844499848783	left	D	DD035.jpg	DD036.jpg
317.198906499892	1.0002045002766	win	n/a	n/a	n/a	DD035.jpg	DD036.jpg
320.015781600028	3.00141829997301	decision	1.5336382002569735	left	D	DD037.jpg	DD038.jpg
323.565861700103	1.01658830000088	loss	n/a	n/a	n/a	DD037.jpg	DD038.jpg
326.399279400241	3.00158299971372	decision	1.0339013999328017	right	D	DD039.jpg	DD040.jpg
329.949196400121	1.01649519987404	loss	n/a	n/a	n/a	DD039.jpg	DD040.jpg
