onset	duration	trial_type	rt	resp	gender	image_left	image_right
0.647829400026239	3.00233799999114	decision	1.53271239995956	right	M	MF001.jpg	MF002.jpg
4.19772609998472	1.00022630003514	win	NaN	n/a	n/a	MF001.jpg	MF002.jpg
11.1648361000116	3.00145139999222	decision	1.53236879996257	left	M	MF003.jpg	MF004.jpg
14.7148717999808	1.01638660003664	loss	NaN	n/a	n/a	MF003.jpg	MF004.jpg
17.4813845999888	3.002318200015	decision	1.53272000001743	right	M	MF005.jpg	MF006.jpg
21.0316980999778	1.0165215000161	win	NaN	n/a	n/a	MF005.jpg	MF006.jpg
23.798360100016	3.00123890000395	decision	1.53281479998259	left	F	FF001.jpg	FF002.jpg
27.3483732999885	1.01641460001701	win	NaN	n/a	n/a	FF001.jpg	FF002.jpg
32.2151011999813	3.00161229999503	decision	1.28238150000107	right	F	FF003.jpg	FF004.jpg
35.7650870999787	1.00002360000508	loss	NaN	n/a	n/a	FF003.jpg	FF004.jpg
42.7151725000003	3.0011697000009	decision	1.28225629997905	left	M	MF007.jpg	MF008.jpg
46.2655072999769	1.01641690003453	loss	NaN	n/a	n/a	MF007.jpg	MF008.jpg
51.1320171999978	3.00165059999563	decision	1.28288100002101	right	M	MF009.jpg	MF010.jpg
54.6820233999752	1.01619789999677	win	NaN	n/a	n/a	MF009.jpg	MF010.jpg
59.5490645000245	3.00147659995127	decision	1.28195769997546	left	F	FF005.jpg	FF006.jpg
63.0987914000289	1.0168611999834	loss	NaN	n/a	n/a	FF005.jpg	FF006.jpg
65.8652857000125	3.00172429997474	decision	1.53265760000795	left	F	FF007.jpg	FF008.jpg
69.4155339000281	1.00004639994586	win	NaN	n/a	n/a	FF007.jpg	FF008.jpg
72.1655427999794	3.0011586000328	decision	1.53242330002831	right	F	FF009.jpg	FF010.jpg
75.7153701999923	1.0002198999864	win	NaN	n/a	n/a	FF009.jpg	FF010.jpg
78.4655297999852	3.00121010001749	decision	1.53447770001367	left	F	FF011.jpg	FF012.jpg
82.015702500008	1.01662169996416	loss	NaN	n/a	n/a	FF011.jpg	FF012.jpg
86.8824401000165	3.00168039998971	decision	1.28238539997255	right	M	MF011.jpg	MF012.jpg
90.4324897999759	1.01627449999796	loss	NaN	n/a	n/a	MF011.jpg	MF012.jpg
93.1992728000041	3.00106500001857	decision	1.53232649998972	left	M	MF013.jpg	MF014.jpg
96.7490004000138	1.0165202000062	win	NaN	n/a	n/a	MF013.jpg	MF014.jpg
103.716032999975	3.00223880005069	decision	1.28283370001009	left	M	MF015.jpg	MF016.jpg
107.266020399984	1.01659010001458	win	NaN	n/a	n/a	MF015.jpg	MF016.jpg
110.032802000002	3.00099710002542	decision	1.53227530000731	right	F	FF013.jpg	FF014.jpg
113.582775500021	1.00000119995093	win	NaN	n/a	n/a	FF013.jpg	FF014.jpg
120.532905199972	3.00092130003031	decision	1.53215850004926	left	M	MF017.jpg	MF018.jpg
124.082622800022	1.00027419999242	win	NaN	n/a	n/a	MF017.jpg	MF018.jpg
128.932815700013	3.00136009999551	decision	1.28340730001219	left	F	FF015.jpg	FF016.jpg
132.483067599998	1.0163796999841	win	NaN	n/a	n/a	FF015.jpg	FF016.jpg
137.349777599971	3.00152740004705	decision	1.53233990003355	left	M	MF019.jpg	MF020.jpg
140.899665399978	1.01651300000958	win	NaN	n/a	n/a	MF019.jpg	MF020.jpg
145.766544500017	3.00109679996967	decision	1.28240229998482	left	F	FF017.jpg	FF018.jpg
149.316270700016	1.00001580000389	win	NaN	n/a	n/a	FF017.jpg	FF018.jpg
162.566814200021	3.00123259995598	decision	1.28205479995813	left	M	MF021.jpg	MF022.jpg
166.116707500012	1.01634869998088	loss	NaN	n/a	n/a	MF021.jpg	MF022.jpg
173.083520399989	3.00153790001059	decision	1.53261570003815	left	M	MF023.jpg	MF024.jpg
176.633535699977	1.00000340002589	win	NaN	n/a	n/a	MF023.jpg	MF024.jpg
183.583703099983	3.00124519999372	decision	1.53355450002709	left	M	MF025.jpg	MF026.jpg
187.133721799997	1.00002039998071	loss	NaN	n/a	n/a	MF025.jpg	MF026.jpg
191.983827000018	3.00111089996062	decision	1.53237019997323	left	M	MF027.jpg	MF028.jpg
195.533428900002	1.00037869997323	loss	NaN	n/a	n/a	MF027.jpg	MF028.jpg
198.283791500027	3.00132019998273	decision	1.53256490000058	left	F	FF019.jpg	FF020.jpg
201.833784900024	1.01628789998358	loss	NaN	n/a	n/a	FF019.jpg	FF020.jpg
204.600666899991	3.00103089999175	decision	1.533562000026	left	F	FF021.jpg	FF022.jpg
208.150638699997	1.00000360002741	win	NaN	n/a	n/a	FF021.jpg	FF022.jpg
215.100758899993	3.00155879999511	decision	1.53289079997921	right	M	MF029.jpg	MF030.jpg
218.650691799994	1.01649320003344	loss	NaN	n/a	n/a	MF029.jpg	MF030.jpg
225.617626800027	3.00123169994913	decision	1.78230849996908	left	M	MF031.jpg	MF032.jpg
229.167708399997	1.01656289998209	win	NaN	n/a	n/a	MF031.jpg	MF032.jpg
234.034374299983	3.00202690000879	decision	1.53248940000776	left	F	FF023.jpg	FF024.jpg
237.584119900013	1.00022210000316	loss	NaN	n/a	n/a	FF023.jpg	FF024.jpg
240.334415599995	3.00158729997929	decision	1.53292899997905	right	F	FF025.jpg	FF026.jpg
243.884416699992	1	win	NaN	n/a	n/a	FF025.jpg	FF026.jpg
248.734340799972	3.00099020003108	decision	1.53300870000385	left	F	FF027.jpg	FF028.jpg
252.284250499972	1.00037770002382	loss	NaN	n/a	n/a	FF027.jpg	FF028.jpg
255.034378400014	3.00103739998303	decision	2.03347590001067	right	M	MF033.jpg	MF034.jpg
258.584574599983	1.01642880000873	loss	NaN	n/a	n/a	MF033.jpg	MF034.jpg
261.351589100028	3.00149819999933	decision	2.03277039999375	right	M	MF035.jpg	MF036.jpg
264.901415099972	1.01653310004622	loss	NaN	n/a	n/a	MF035.jpg	MF036.jpg
267.668139100017	3.00069089996396	decision	1.53320969996275	left	M	MF037.jpg	MF038.jpg
271.218100400001	1.01662660000147	win	NaN	n/a	n/a	MF037.jpg	MF038.jpg
278.184770399996	3.00040060002357	decision	1.53304210002534	right	F	FF029.jpg	FF030.jpg
281.734961399983	1.01647050003521	loss	NaN	n/a	n/a	FF029.jpg	FF030.jpg
284.501500000013	3.00083949998952	decision	1.78307589999167	right	F	FF031.jpg	FF032.jpg
288.051632500021	1.01669109996874	loss	NaN	n/a	n/a	FF031.jpg	FF032.jpg
292.918375900015	3.00175469997339	decision	1.53260129998671	left	F	FF033.jpg	FF034.jpg
296.468350799987	1.00001530000009	win	NaN	n/a	n/a	FF033.jpg	FF034.jpg
303.418292000017	3.00111429998651	decision	1.53262859996175	left	M	MF039.jpg	MF040.jpg
306.968502599979	1.01671530003659	loss	NaN	n/a	n/a	MF039.jpg	MF040.jpg
313.935022099991	3.00140439998358	decision	1.53268709999975	right	F	FF035.jpg	FF036.jpg
317.485310400021	1.01669049996417	win	NaN	n/a	n/a	FF035.jpg	FF036.jpg
320.251928900019	3.0012066999916	decision	1.53379879996646	left	F	FF037.jpg	FF038.jpg
323.801602800027	1.01708959997632	loss	NaN	n/a	n/a	FF037.jpg	FF038.jpg
326.568907400011	3.00105149997398	decision	1.53236229997128	right	F	FF039.jpg	FF040.jpg
330.118778500007	1.01674160000402	loss	NaN	n/a	n/a	FF039.jpg	FF040.jpg
