onset	duration	trial_type	rt	resp	gender	image_left	image_right
0.647907700156793	3.00184819987044	decision	1.53291039983742	right	F	FF017.jpg	FF018.jpg
4.19790500006638	1.01658160006627	loss	NaN	n/a	n/a	FF017.jpg	FF018.jpg
11.1816136001144	3.00086839986034	decision	1.5337175000459	right	F	FF035.jpg	FF036.jpg
14.7316004000604	1.00002210005186	win	NaN	n/a	n/a	FF035.jpg	FF036.jpg
21.6981477001682	3.00143969990313	decision	1.78344339993782	right	F	FF021.jpg	FF022.jpg
25.2481454000808	1.0165532999672	loss	NaN	n/a	n/a	FF021.jpg	FF022.jpg
32.232474999968	3.00070950016379	decision	2.03214960009791	left	M	MF025.jpg	MF026.jpg
35.7814913999755	0.999999199993908	loss	NaN	n/a	n/a	MF025.jpg	MF026.jpg
38.5482607001904	3.00033149984665	decision	1.53320299996994	right	M	MF027.jpg	MF028.jpg
42.0984747000039	1.01658110017888	loss	NaN	n/a	n/a	MF027.jpg	MF028.jpg
44.8817636000458	3.00112770008855	decision	1.78245300007984	right	M	MF023.jpg	MF024.jpg
48.4316744001117	1.01667619985528	win	NaN	n/a	n/a	MF023.jpg	MF024.jpg
51.1984320001211	3.00119089987129	decision	1.53322339989245	right	F	FF037.jpg	FF038.jpg
54.7483538000379	1.00002839998342	win	NaN	n/a	n/a	FF037.jpg	FF038.jpg
59.6152304999996	3.00079059996642	decision	1.78304550005123	right	M	MF011.jpg	MF012.jpg
63.1650479000527	1.00014550006017	loss	NaN	n/a	n/a	MF011.jpg	MF012.jpg
68.0151526001282	3.00106019992381	decision	1.53308259998448	left	F	FF009.jpg	FF010.jpg
71.5653470000252	1.00056369998492	win	NaN	n/a	n/a	FF009.jpg	FF010.jpg
74.3320901000407	3.00052290013991	decision	1.53256700001657	left	F	FF027.jpg	FF028.jpg
77.8820059001446	1.01669680001214	win	NaN	n/a	n/a	FF027.jpg	FF028.jpg
82.7653742001858	3.00073949992657	decision	1.53319679992273	right	F	FF015.jpg	FF016.jpg
86.3154726000503	1.01663440000266	loss	NaN	n/a	n/a	FF015.jpg	FF016.jpg
93.2991339999717	3.00062600011006	decision	1.53245780011639	right	M	MF029.jpg	MF030.jpg
96.8488723000046	1.00026330002584	loss	NaN	n/a	n/a	MF029.jpg	MF030.jpg
101.715587400133	3.00088219996542	decision	1.28339969995432	right	M	MF015.jpg	MF016.jpg
105.265575099969	1.01665720017627	win	NaN	n/a	n/a	MF015.jpg	MF016.jpg
112.232547300169	3.00220579979941	decision	1.53495539980941	left	M	MF007.jpg	MF008.jpg
115.782485000091	1.01660820003599	win	NaN	n/a	n/a	MF007.jpg	MF008.jpg
120.665832200088	3.00132089992985	decision	1.78299989993684	left	M	MF017.jpg	MF018.jpg
124.215983700007	1.01638270006515	win	NaN	n/a	n/a	MF017.jpg	MF018.jpg
126.999254900031	3.00102980015799	decision	1.78352830000222	right	F	FF033.jpg	FF034.jpg
130.549140600022	1.0006709001027	win	NaN	n/a	n/a	FF033.jpg	FF034.jpg
133.316369200125	3.00119199999608	decision	1.78271539998241	right	F	FF007.jpg	FF008.jpg
136.86583689996	1.00007350021042	loss	NaN	n/a	n/a	FF007.jpg	FF008.jpg
139.616027700016	3.00194570003077	decision	1.28342640004121	left	F	FF023.jpg	FF024.jpg
143.165928400122	1.01674370002002	loss	NaN	n/a	n/a	FF023.jpg	FF024.jpg
156.44947280013	3.00096779991873	decision	1.5333352999296	right	M	MF009.jpg	MF010.jpg
159.999393700156	1.00012719980441	loss	NaN	n/a	n/a	MF009.jpg	MF010.jpg
164.849678300088	3.00089000002481	decision	1.78239719988778	left	F	FF001.jpg	FF002.jpg
168.399504299974	1.01676280004904	win	NaN	n/a	n/a	FF001.jpg	FF002.jpg
171.183141800109	3.00135620008223	decision	1.5334576999303	left	M	MF019.jpg	MF020.jpg
174.73292129999	1.01671170000918	loss	NaN	n/a	n/a	MF019.jpg	MF020.jpg
181.716421900084	3.00065169995651	decision	1.53309640008956	left	F	FF031.jpg	FF032.jpg
185.266691999976	1.01671029999852	loss	NaN	n/a	n/a	FF031.jpg	FF032.jpg
190.133195100119	3.00125069986098	decision	1.28316919994541	right	M	MF005.jpg	MF006.jpg
193.68403210002	1.01593550015241	win	NaN	n/a	n/a	MF005.jpg	MF006.jpg
196.466768300161	3.00059910002165	decision	1.53256149985828	left	F	FF019.jpg	FF020.jpg
200.016487500165	1.01664109993726	win	NaN	n/a	n/a	FF019.jpg	FF020.jpg
207.000026300084	3.00113880005665	decision	1.28319510002621	right	M	MF013.jpg	MF014.jpg
210.549887700006	1.0001638000831	loss	NaN	n/a	n/a	MF013.jpg	MF014.jpg
217.516846500104	3.00079309986904	decision	1.53339360002428	right	M	MF031.jpg	MF032.jpg
221.06666380004	1.00010080006905	loss	NaN	n/a	n/a	MF031.jpg	MF032.jpg
225.933578900062	3.0016133999452	decision	1.53324200003408	left	F	FF039.jpg	FF040.jpg
229.483582500136	1.00036669988185	loss	NaN	n/a	n/a	FF039.jpg	FF040.jpg
232.25032890006	3.00169770000502	decision	1.53371699992567	left	F	FF005.jpg	FF006.jpg
235.800157299964	1.00002780021168	loss	NaN	n/a	n/a	FF005.jpg	FF006.jpg
242.76698480011	3.00158599996939	decision	1.28393510007299	right	M	MF037.jpg	MF038.jpg
246.317036099965	1.01664120005444	loss	NaN	n/a	n/a	MF037.jpg	MF038.jpg
249.10041459999	3.00062700011767	decision	1.53339790017344	right	M	MF039.jpg	MF040.jpg
252.65031399997	1.00053800013848	win	NaN	n/a	n/a	MF039.jpg	MF040.jpg
255.417328500189	3.00056379986927	decision	1.53292489983141	right	M	MF033.jpg	MF034.jpg
258.96716170013	1.01670269994065	loss	NaN	n/a	n/a	MF033.jpg	MF034.jpg
261.7506269	3.00096550001763	decision	1.5324058001861	right	F	FF013.jpg	FF014.jpg
265.300506900065	1.01670129992999	win	NaN	n/a	n/a	FF013.jpg	FF014.jpg
270.183979300084	3.00102890003473	decision	1.53323630010709	right	M	MF001.jpg	MF002.jpg
273.733973900089	1.00052789994515	win	NaN	n/a	n/a	MF001.jpg	MF002.jpg
276.500594200101	3.00153300003149	decision	1.78346770000644	right	F	FF003.jpg	FF004.jpg
280.050588099984	1.00007469998673	win	NaN	n/a	n/a	FF003.jpg	FF004.jpg
284.917486099992	3.00199420005083	decision	1.28282990003936	right	M	MF003.jpg	MF004.jpg
288.467337000184	1.00003299978562	win	NaN	n/a	n/a	MF003.jpg	MF004.jpg
295.43404790014	3.00065069994889	decision	1.53301939996891	right	F	FF025.jpg	FF026.jpg
298.984122300055	1.01663350011222	win	NaN	n/a	n/a	FF025.jpg	FF026.jpg
305.967646700097	3.0002728998661	decision	1.53255350003019	right	M	MF035.jpg	MF036.jpg
309.517676600022	1.016541399993	win	NaN	n/a	n/a	MF035.jpg	MF036.jpg
312.300982699962	3.00148910004646	decision	1.28333010012284	right	F	FF011.jpg	FF012.jpg
315.85090550012	1.00001870002598	loss	NaN	n/a	n/a	FF011.jpg	FF012.jpg
318.617856200086	3.00054499995895	decision	1.53310179989785	left	M	MF021.jpg	MF022.jpg
322.167864300078	1.016541399993	win	NaN	n/a	n/a	MF021.jpg	MF022.jpg
327.034492800012	3.00240260013379	decision	1.282889300026	right	F	FF029.jpg	FF030.jpg
330.584508800181	1.01652489998378	loss	NaN	n/a	n/a	FF029.jpg	FF030.jpg
