onset	duration	trial_type	rt	resp	gender	image_left	image_right
0.600606099935248	3.00091780000366	decision	1.78234970010817	left	D	DD017.jpg	DD018.jpg
4.15051100007258	1.01688300003298	loss	NaN	n/a	n/a	DD017.jpg	DD018.jpg
11.1172867999412	3.00063850008883	decision	2.03325229999609	left	D	DD035.jpg	DD036.jpg
14.667206000071	1.01658279984258	win	NaN	n/a	n/a	DD035.jpg	DD036.jpg
21.6172442999668	3.00140159996226	decision	2.03333180001937	right	D	DD021.jpg	DD022.jpg
25.1673353998922	1.01652730000205	loss	NaN	n/a	n/a	DD021.jpg	DD022.jpg
32.1006615001243	3.00175499985926	decision	2.03225739998743	right	S	SD025.jpg	SD026.jpg
35.6505005999934	1.01663669990376	loss	NaN	n/a	n/a	SD025.jpg	SD026.jpg
38.400603499962	3.00131470011547	decision	2.28369270008989	left	S	SD027.jpg	SD028.jpg
41.9505743000191	1.01658340007998	loss	NaN	n/a	n/a	SD027.jpg	SD028.jpg
44.6838875999674	3.00097150006332	decision	2.28302480001003	right	S	SD023.jpg	SD024.jpg
48.2337577000726	1.01677810004912	win	NaN	n/a	n/a	SD023.jpg	SD024.jpg
50.9838332000654	3.00073809991591	decision	1.78325039986521	right	D	DD037.jpg	DD038.jpg
54.5337753999047	1.0000003001187	win	NaN	n/a	n/a	DD037.jpg	DD038.jpg
59.3672468001023	3.00163329998031	decision	2.03320789989084	left	S	SD011.jpg	SD012.jpg
62.9172314000316	1.01656090002507	loss	NaN	n/a	n/a	SD011.jpg	SD012.jpg
67.7505332001019	3.00124689983204	decision	2.03235080000013	right	D	DD009.jpg	DD010.jpg
71.3005291000009	1.01662610005587	win	NaN	n/a	n/a	DD009.jpg	DD010.jpg
74.0338328999933	3.001486599911	decision	2.03301670006476	left	D	DD027.jpg	DD028.jpg
77.5837451000698	1.00004379986785	win	NaN	n/a	n/a	DD027.jpg	DD028.jpg
82.4338388000615	3.00078610004857	decision	1.78422539983876	right	D	DD015.jpg	DD016.jpg
85.9837658000179	1.0001423000358	loss	NaN	n/a	n/a	DD015.jpg	DD016.jpg
92.9171521998942	3.00070420000702	decision	2.03331270022318	left	S	SD029.jpg	SD030.jpg
96.4670857999008	1.00000720005482	loss	NaN	n/a	n/a	SD029.jpg	SD030.jpg
101.283899300033	3.00065639987588	decision	1.78307319991291	left	S	SD015.jpg	SD016.jpg
104.833797000116	1.01660829992034	win	NaN	n/a	n/a	SD015.jpg	SD016.jpg
111.76714859996	3.0014991001226	decision	1.78334710001945	left	S	SD007.jpg	SD008.jpg
115.317061000038	1.01668430003338	win	NaN	n/a	n/a	SD007.jpg	SD008.jpg
120.16714600008	3.00172499986365	decision	1.78323849989101	right	S	SD017.jpg	SD018.jpg
123.717001900077	1.01679040002637	win	NaN	n/a	n/a	SD017.jpg	SD018.jpg
126.467478000093	3.00156379980035	decision	2.03244029986672	left	D	DD033.jpg	DD034.jpg
130.016986900009	1.00005579995923	win	NaN	n/a	n/a	DD033.jpg	DD034.jpg
132.750580799999	3.00193249993026	decision	1.78247629990801	right	D	DD007.jpg	DD008.jpg
136.300587400096	1.01651209988631	loss	NaN	n/a	n/a	DD007.jpg	DD008.jpg
139.033869100036	3.00076700001955	decision	1.78311449987814	right	D	DD023.jpg	DD024.jpg
142.583754200023	1.00011270004325	loss	NaN	n/a	n/a	DD023.jpg	DD024.jpg
155.817089099903	3.00190300005488	decision	1.78354310011491	right	S	SD009.jpg	SD010.jpg
159.36697000009	1.00006019999273	loss	NaN	n/a	n/a	SD009.jpg	SD010.jpg
164.183742699912	3.00230000005104	decision	1.78283690009266	left	D	DD001.jpg	DD002.jpg
167.733799099922	1.01656340016052	win	NaN	n/a	n/a	DD001.jpg	DD002.jpg
170.500513599953	3.00155399995856	decision	2.03238630015403	right	S	SD019.jpg	SD020.jpg
174.050416100072	1.01655519986525	loss	NaN	n/a	n/a	SD019.jpg	SD020.jpg
181.000449599931	3.00107630016282	decision	1.53243939997628	left	D	DD031.jpg	DD032.jpg
184.550398200052	1.01656949985772	loss	NaN	n/a	n/a	DD031.jpg	DD032.jpg
189.384127500001	3.00194419990294	decision	1.78196429996751	right	S	SD005.jpg	SD006.jpg
192.933706700103	1.01656689983793	win	NaN	n/a	n/a	SD005.jpg	SD006.jpg
195.700414899969	3.00108670000918	decision	2.03244050010107	right	D	DD019.jpg	DD020.jpg
199.250310800038	1.016648999881	win	NaN	n/a	n/a	DD019.jpg	DD020.jpg
206.183832499897	3.00030440022238	decision	2.28324300004169	left	S	SD013.jpg	SD014.jpg
209.733575399965	1.0001612000633	loss	NaN	n/a	n/a	SD013.jpg	SD014.jpg
216.650336199906	3.00054550007917	decision	2.80078020016663	right	S	SD031.jpg	SD032.jpg
220.200415899977	1.01667089993134	loss	NaN	n/a	n/a	SD031.jpg	SD032.jpg
225.033751599956	3.00192840001546	decision	2.28383260010742	left	D	DD039.jpg	DD040.jpg
228.583982100012	1.01620749989524	loss	NaN	n/a	n/a	DD039.jpg	DD040.jpg
231.334078599932	3.00134820002131	decision	2.53377290000208	right	D	DD005.jpg	DD006.jpg
234.883576299995	1.00026750005782	loss	NaN	n/a	n/a	DD005.jpg	DD006.jpg
241.817013100022	3.00106679997407	decision	2.7833449000027	left	S	SD037.jpg	SD038.jpg
245.366885799915	1.00001570000313	loss	NaN	n/a	n/a	SD037.jpg	SD038.jpg
248.083631499903	3.00202420004643	decision	2.7995459001977	left	S	SD039.jpg	SD040.jpg
251.633654699894	1.01661520008929	win	NaN	n/a	n/a	SD039.jpg	SD040.jpg
254.366981999949	3.00108129996806	decision	2.28315060003661	right	S	SD033.jpg	SD034.jpg
257.916895600036	1.01696090004407	loss	NaN	n/a	n/a	SD033.jpg	SD034.jpg
260.667044100119	3.00054789986461	decision	2.53303059982136	right	D	DD013.jpg	DD014.jpg
264.216842700029	1.00001020007767	win	NaN	n/a	n/a	DD013.jpg	DD014.jpg
269.034314400051	3.0016040999908	decision	2.54845830006525	left	S	SD001.jpg	SD002.jpg
272.583744300064	1.01639520004392	win	NaN	n/a	n/a	SD001.jpg	SD002.jpg
275.333722099895	3.00185890006833	decision	2.28360850014724	right	D	DD003.jpg	DD004.jpg
278.883602499962	1.01665270002559	win	NaN	n/a	n/a	DD003.jpg	DD004.jpg
283.716940900078	3.00078579992987	decision	2.79919589986093	left	S	SD003.jpg	SD004.jpg
287.267194600077	1.01631999993697	win	NaN	n/a	n/a	SD003.jpg	SD004.jpg
294.200242399937	3.00185180013068	decision	2.28288040007465	right	D	DD025.jpg	DD026.jpg
297.750308200018	1.01663920003921	win	NaN	n/a	n/a	DD025.jpg	DD026.jpg
304.700185300084	3.00131119997241	decision	2.53474449994974	right	S	SD035.jpg	SD036.jpg
308.250515100081	1.01683189999312	win	NaN	n/a	n/a	SD035.jpg	SD036.jpg
311.000007499941	3.0011106999591	decision	2.53309160005301	left	D	DD011.jpg	DD012.jpg
314.550132900011	1.01673009991646	loss	NaN	n/a	n/a	DD011.jpg	DD012.jpg
317.300224100007	3.00082940002903	decision	2.53290920006111	left	S	SD021.jpg	SD022.jpg
320.850129100028	1.0166682000272	win	NaN	n/a	n/a	SD021.jpg	SD022.jpg
325.683685499942	3.00190340005793	decision	2.28339540003799	left	D	DD029.jpg	DD030.jpg
329.233507799916	1.01660440000705	loss	NaN	n/a	n/a	DD029.jpg	DD030.jpg
