onset	duration	trial_type	rt	resp	gender	image_left	image_right
0.600339199998416	3.0006863999879	decision	1.03313700004946	left	D	DD017.jpg	DD018.jpg
4.15039229998365	1.01664859999437	loss	NaN	n/a	n/a	DD017.jpg	DD018.jpg
11.100494400016	3.00123139994685	decision	1.28311249997932	left	D	DD035.jpg	DD036.jpg
14.6504640999483	1.01669010007754	win	NaN	n/a	n/a	DD035.jpg	DD036.jpg
21.6007090000203	3.00203370000236	decision	1.28392319998238	right	D	DD021.jpg	DD022.jpg
25.1504899000283	1.00002179993317	loss	NaN	n/a	n/a	DD021.jpg	DD022.jpg
32.0673459999962	3.00038870004937	decision	1.28328380000312	left	S	SD025.jpg	SD026.jpg
35.617429099977	1.01677780004684	loss	NaN	n/a	n/a	SD025.jpg	SD026.jpg
38.3673842999851	3.0012027999619	decision	1.53319570003077	left	S	SD027.jpg	SD028.jpg
41.9176694999915	1.01673240005039	loss	NaN	n/a	n/a	SD027.jpg	SD028.jpg
44.6509052000474	3.00135439995211	decision	1.53257239994127	left	S	SD023.jpg	SD024.jpg
48.2008744999766	1.00021830003243	win	NaN	n/a	n/a	SD023.jpg	SD024.jpg
50.9343118999386	3.00184430007357	decision	1.28238610003609	right	D	DD037.jpg	DD038.jpg
54.4841967000393	1.0001242000144	win	NaN	n/a	n/a	DD037.jpg	DD038.jpg
59.3176721000345	3.00166589999571	decision	1.53330469992943	right	S	SD011.jpg	SD012.jpg
62.8677714000223	1.0164880999364	loss	NaN	n/a	n/a	SD011.jpg	SD012.jpg
67.7011753999395	3.00173650006764	decision	1.28337910003029	left	D	DD009.jpg	DD010.jpg
71.2510985999834	1.000127300038	win	NaN	n/a	n/a	DD009.jpg	DD010.jpg
73.9679245000007	3.00172479997855	decision	1.28376709995791	right	D	DD027.jpg	DD028.jpg
77.5179282999597	1.01661160006188	win	NaN	n/a	n/a	DD027.jpg	DD028.jpg
82.3846616999945	3.00204419996589	decision	1.53389419999439	left	D	DD015.jpg	DD016.jpg
85.9345820000162	1.00007219996769	loss	NaN	n/a	n/a	DD015.jpg	DD016.jpg
92.8681699000299	3.00196169991978	decision	1.03361809998751	right	S	SD029.jpg	SD030.jpg
96.4179644000251	1.0001647999743	loss	NaN	n/a	n/a	SD029.jpg	SD030.jpg
101.234890099964	3.00221860001329	decision	1.2828474000562	right	S	SD015.jpg	SD016.jpg
104.784907600028	1.00000599992927	win	NaN	n/a	n/a	SD015.jpg	SD016.jpg
111.701858300017	3.00199160003103	decision	1.28283899999224	left	S	SD007.jpg	SD008.jpg
115.251704100054	1.01667629997246	win	NaN	n/a	n/a	SD007.jpg	SD008.jpg
120.101774999988	3.00162400002591	decision	1.53346810000949	left	S	SD017.jpg	SD018.jpg
123.651887899963	1.01657249999698	win	NaN	n/a	n/a	SD017.jpg	SD018.jpg
126.401960900053	3.00112329993863	decision	1.78343979991041	right	D	DD033.jpg	DD034.jpg
129.951758299954	1.00014980009291	win	NaN	n/a	n/a	DD033.jpg	DD034.jpg
132.68534960004	3.00119909993373	decision	1.53319749992806	right	D	DD007.jpg	DD008.jpg
136.235388700035	1.01642409991473	loss	NaN	n/a	n/a	DD007.jpg	DD008.jpg
138.968560299953	3.00160770001821	decision	1.53395740000997	right	D	DD023.jpg	DD024.jpg
142.518629399943	1.00002060004044	loss	NaN	n/a	n/a	DD023.jpg	DD024.jpg
155.752198199974	3.00186560000293	decision	1.28253620001487	left	S	SD009.jpg	SD010.jpg
159.302112799953	1.00010460009798	loss	NaN	n/a	n/a	SD009.jpg	SD010.jpg
164.119274299941	3.00075280002784	decision	1.03326920000836	left	D	DD001.jpg	DD002.jpg
167.668973500025	1.00000180001371	win	NaN	n/a	n/a	DD001.jpg	DD002.jpg
170.419012799975	3.0014688000083	decision	1.53371150000021	right	S	SD019.jpg	SD020.jpg
173.969065099955	1.01667779998388	loss	NaN	n/a	n/a	SD019.jpg	SD020.jpg
180.91919679998	3.00132979999762	decision	1.03340660000686	left	D	DD031.jpg	DD032.jpg
184.469369099941	1.01641030004248	loss	NaN	n/a	n/a	DD031.jpg	DD032.jpg
189.302552500041	3.00198599998839	decision	0.782959299976937	left	S	SD005.jpg	SD006.jpg
192.852557700011	1.01671769993845	win	NaN	n/a	n/a	SD005.jpg	SD006.jpg
195.619353499962	3.00125319999643	decision	1.03373660007492	right	D	DD019.jpg	DD020.jpg
199.169360399945	1.00001820002217	win	NaN	n/a	n/a	DD019.jpg	DD020.jpg
206.086080500041	3.00137919990811	decision	1.03276460000779	right	S	SD013.jpg	SD014.jpg
209.636116000009	1.0002647000365	loss	NaN	n/a	n/a	SD013.jpg	SD014.jpg
216.552943199989	3.00092150003184	decision	1.0333391999593	left	S	SD031.jpg	SD032.jpg
220.102974200039	1.01653059991077	loss	NaN	n/a	n/a	SD031.jpg	SD032.jpg
224.936548499973	3.00090380001348	decision	1.28239190008026	left	D	DD039.jpg	DD040.jpg
228.486321000033	1.0000457999995	loss	NaN	n/a	n/a	DD039.jpg	DD040.jpg
231.219808400027	3.00147489993833	decision	1.53227859991603	left	D	DD005.jpg	DD006.jpg
234.769713000045	1.00004819990136	loss	NaN	n/a	n/a	DD005.jpg	DD006.jpg
241.703172300011	3.00133510003798	decision	1.0323906999547	left	S	SD037.jpg	SD038.jpg
245.253756099963	1.01608259999193	loss	NaN	n/a	n/a	SD037.jpg	SD038.jpg
248.003373099957	3.00111270009074	decision	1.03330840007402	left	S	SD039.jpg	SD040.jpg
251.55341059994	1.01655190007295	win	NaN	n/a	n/a	SD039.jpg	SD040.jpg
254.303297800012	3.00112060003448	decision	1.03338769997936	left	S	SD033.jpg	SD034.jpg
257.853257899988	1.00000430003274	loss	NaN	n/a	n/a	SD033.jpg	SD034.jpg
260.58668790001	3.00126069993712	decision	1.03313999995589	left	D	DD013.jpg	DD014.jpg
264.1367417	1.0002908000024	win	NaN	n/a	n/a	DD013.jpg	DD014.jpg
268.953602500027	3.00185729993973	decision	1.03282209997997	left	S	SD001.jpg	SD002.jpg
272.503478299943	1.00001730001532	win	NaN	n/a	n/a	SD001.jpg	SD002.jpg
275.236955499975	3.00143110007048	decision	1.03382690006401	right	D	DD003.jpg	DD004.jpg
278.786915399949	1.01662970008329	win	NaN	n/a	n/a	DD003.jpg	DD004.jpg
283.620450700051	3.00202249991708	decision	1.03371779993176	left	S	SD003.jpg	SD004.jpg
287.17027620005	1.0167056999635	win	NaN	n/a	n/a	SD003.jpg	SD004.jpg
294.103771000053	3.00102869991679	decision	1.03336489992216	left	D	DD025.jpg	DD026.jpg
297.653622400016	1.0001608999446	win	NaN	n/a	n/a	DD025.jpg	DD026.jpg
304.587393000023	3.00073209998664	decision	1.03320679999888	right	S	SD035.jpg	SD036.jpg
308.13716449996	1.00006590003613	win	NaN	n/a	n/a	SD035.jpg	SD036.jpg
310.870712299948	3.00140070007183	decision	1.0327043000143	left	D	DD011.jpg	DD012.jpg
314.420618099975	1.00002599996515	loss	NaN	n/a	n/a	DD011.jpg	DD012.jpg
317.154082300025	3.0011014000047	decision	1.28341279993765	left	S	SD021.jpg	SD022.jpg
320.704091200023	1.00001650000922	win	NaN	n/a	n/a	SD021.jpg	SD022.jpg
325.520875500049	3.00053719989955	decision	1.03305579989683	right	D	DD029.jpg	DD030.jpg
329.07083099999	1.00001780001912	loss	NaN	n/a	n/a	DD029.jpg	DD030.jpg
