onset	duration	trial_type	rt	resp	gender	image_left	image_right
0.653985700002522	3.00173659999564	decision	2.033516799994686	left	M	MF001.jpg	MF002.jpg
4.20392339999671	1.00011350000568	win	n/a	n/a	n/a	MF001.jpg	MF002.jpg
11.1706769000011	3.00088229999528	decision	1.7830739999990328	right	M	MF003.jpg	MF004.jpg
14.7205259999973	1.01669360000233	loss	n/a	n/a	n/a	MF003.jpg	MF004.jpg
17.5040141999998	3.00109759999759	decision	2.283419999999751	right	M	MF005.jpg	MF006.jpg
21.0540901999993	1.01642320000246	win	n/a	n/a	n/a	MF005.jpg	MF006.jpg
23.8208490999968	3.00235980000434	decision	2.7989712999988114	left	F	FF001.jpg	FF002.jpg
27.3704192000005	1.01672020000115	win	n/a	n/a	n/a	FF001.jpg	FF002.jpg
32.2371985999998	3.00156450000213	decision	2.7990492999961134	right	F	FF003.jpg	FF004.jpg
35.7874480999963	1.0163823000039	loss	n/a	n/a	n/a	FF003.jpg	FF004.jpg
42.7538252000013	3.00109919999522	decision	2.0326005999959307	left	M	MF007.jpg	MF008.jpg
46.3038786999969	1.00128039999981	loss	n/a	n/a	n/a	MF007.jpg	MF008.jpg
51.1538760999974	3.00156430000061	decision	2.282844200002728	left	M	MF009.jpg	MF010.jpg
54.7037990999961	1.01668459999928	win	n/a	n/a	n/a	MF009.jpg	MF010.jpg
59.5708311999988	3.00128299999778	decision	2.533745499997167	right	F	FF005.jpg	FF006.jpg
63.1207548999955	1.01656650000223	loss	n/a	n/a	n/a	FF005.jpg	FF006.jpg
65.9039522999956	3.00105630000326	decision	2.283303900003375	left	F	FF007.jpg	FF008.jpg
69.4537368999954	1.0000238000066	win	n/a	n/a	n/a	FF007.jpg	FF008.jpg
72.2205477000025	3.00134649999382	decision	1.782880999999179	left	F	FF009.jpg	FF010.jpg
75.7707183999955	1.0163515000022	win	n/a	n/a	n/a	FF009.jpg	FF010.jpg
78.5371950999979	3.00147219999781	decision	2.532510299999558	left	F	FF011.jpg	FF012.jpg
82.0872039999958	1.00010699999984	loss	n/a	n/a	n/a	FF011.jpg	FF012.jpg
86.9377183999968	3.30046299999958	decision	3.299883300001966	right	M	MF011.jpg	MF012.jpg
90.787353300002	1.01638289999391	loss	n/a	n/a	n/a	MF011.jpg	MF012.jpg
93.5537642999989	3.00167640000291	decision	2.0339259000029415	right	M	MF013.jpg	MF014.jpg
97.1037715999992	1.00000480000017	win	n/a	n/a	n/a	MF013.jpg	MF014.jpg
104.053821599999	3.0016437000013	decision	1.7828061000036541	left	M	MF015.jpg	MF016.jpg
107.604823100002	1.01589279999462	win	n/a	n/a	n/a	MF015.jpg	MF016.jpg
110.370431700001	3.05100579999998	decision	3.050432299998647	left	F	FF013.jpg	FF014.jpg
113.970534699998	1.01644549999764	win	n/a	n/a	n/a	FF013.jpg	FF014.jpg
120.937095900001	3.0008727999957	decision	2.033014799999364	right	M	MF017.jpg	MF018.jpg
124.487289700002	1.01661529999546	win	n/a	n/a	n/a	MF017.jpg	MF018.jpg
129.370508499997	3.00141620000068	decision	2.5342530000052648	left	F	FF015.jpg	FF016.jpg
132.920597999997	1.01634550000017	win	n/a	n/a	n/a	FF015.jpg	FF016.jpg
137.787329799998	3.00166800000443	decision	2.5324981000012485	left	M	MF019.jpg	MF020.jpg
141.336918599998	1.01675160000013	win	n/a	n/a	n/a	MF019.jpg	MF020.jpg
146.220532400002	3.30007649999607	decision	3.2995246999998926	left	F	FF017.jpg	FF018.jpg
150.070372499998	1.00017330000264	win	n/a	n/a	n/a	FF017.jpg	FF018.jpg
163.320378999997	3.00136570000177	decision	2.282897100005357	left	M	MF021.jpg	MF022.jpg
166.870290699997	1.0002467000013	loss	n/a	n/a	n/a	MF021.jpg	MF022.jpg
173.836970099997	3.00121170000057	decision	2.032449700003781	left	M	MF023.jpg	MF024.jpg
177.387147399997	1.00000910000381	win	n/a	n/a	n/a	MF023.jpg	MF024.jpg
184.353780899997	3.03571119999833	decision-missed	n/a	n/a	M	MF025.jpg	MF026.jpg
187.936883299997	1.01661840000452	loss	n/a	n/a	n/a	MF025.jpg	MF026.jpg
192.820402199999	3.00078639999992	decision	1.7831048000007286	left	M	MF027.jpg	MF028.jpg
196.370020800001	1.00016859999596	loss	n/a	n/a	n/a	MF027.jpg	MF028.jpg
199.136968999999	3.00134930000058	decision	1.2827917000031448	left	F	FF019.jpg	FF020.jpg
202.686851999999	1.00011649999942	loss	n/a	n/a	n/a	FF019.jpg	FF020.jpg
205.436765999999	3.00152389999857	decision	2.535964499998954	right	F	FF021.jpg	FF022.jpg
208.988005200001	1.01560999999492	win	n/a	n/a	n/a	FF021.jpg	FF022.jpg
215.953837499997	3.00168390000181	decision	2.03359189999901	left	M	MF029.jpg	MF030.jpg
219.503439300002	1.00026779999462	loss	n/a	n/a	n/a	MF029.jpg	MF030.jpg
226.453801299998	3.00141250000161	decision	1.5330300999994506	right	M	MF031.jpg	MF032.jpg
230.003656599998	1.0164036999995	win	n/a	n/a	n/a	MF031.jpg	MF032.jpg
234.886698199996	3.00180340000225	decision	2.534798300002876	right	F	FF023.jpg	FF024.jpg
238.436732599999	1.00007349999942	loss	n/a	n/a	n/a	FF023.jpg	FF024.jpg
241.186792299995	3.002055200006	decision	1.7829105000055279	right	F	FF025.jpg	FF026.jpg
244.7366607	1.01688779999677	win	n/a	n/a	n/a	FF025.jpg	FF026.jpg
249.603613499996	3.00116070000513	decision	2.5340620999995735	left	F	FF027.jpg	FF028.jpg
253.153254299999	1.00049459999718	loss	n/a	n/a	n/a	FF027.jpg	FF028.jpg
255.919966699999	3.0007007000022	decision	1.7830815999986953	right	M	MF033.jpg	MF034.jpg
259.470013500002	1.01657390000037	loss	n/a	n/a	n/a	MF033.jpg	MF034.jpg
262.253402499999	3.00105030000122	decision	1.5324697000032756	right	M	MF035.jpg	MF036.jpg
265.8032551	1.00008520000119	loss	n/a	n/a	n/a	MF035.jpg	MF036.jpg
268.570006000002	3.00062479999906	decision	1.7831904999984545	right	M	MF037.jpg	MF038.jpg
272.119936999996	1.00007560000086	win	n/a	n/a	n/a	MF037.jpg	MF038.jpg
279.086788799999	3.0019226000004	decision	2.531867700003204	right	F	FF029.jpg	FF030.jpg
282.6366815	1.01670999999624	loss	n/a	n/a	n/a	FF029.jpg	FF030.jpg
285.403391100001	3.00133379999897	decision	1.5328061999971396	right	F	FF031.jpg	FF032.jpg
288.953731699999	1.01647159999993	loss	n/a	n/a	n/a	FF031.jpg	FF032.jpg
293.836603199998	3.00140729999839	decision	2.033190200003446	right	F	FF033.jpg	FF034.jpg
297.3864971	1.00022460000037	win	n/a	n/a	n/a	FF033.jpg	FF034.jpg
304.353231299996	3.00158370000281	decision	2.282940700002655	right	M	MF039.jpg	MF040.jpg
307.903356999996	1.0001767000067	loss	n/a	n/a	n/a	MF039.jpg	MF040.jpg
314.853341199996	3.00232780000078	decision	2.533994299999904	left	F	FF035.jpg	FF036.jpg
318.403167099998	1.00000120000186	win	n/a	n/a	n/a	FF035.jpg	FF036.jpg
321.170172899998	3.0012585000004	decision	1.5327690999984043	left	F	FF037.jpg	FF038.jpg
324.719777899998	1.00002520000271	loss	n/a	n/a	n/a	FF037.jpg	FF038.jpg
327.486545599997	3.00206330000219	decision	2.799465700001747	left	F	FF039.jpg	FF040.jpg
331.036548600001	1.01688279999507	loss	n/a	n/a	n/a	FF039.jpg	FF040.jpg
