onset	duration	trial_type	rt	resp	gender	image_left	image_right
0.635411600000225	3.00108750001527	decision	1.7824188999366	left	M	MF001.jpg	MF002.jpg
4.18528630002402	1.00000389991328	win	NaN	n/a	n/a	MF001.jpg	MF002.jpg
11.1520998999476	3.00117160007358	decision	2.28301630006172	right	M	MF003.jpg	MF004.jpg
14.7018038999522	1.00031609996222	loss	NaN	n/a	n/a	MF003.jpg	MF004.jpg
17.468632599921	3.0022159999935	decision	2.28297890000977	left	M	MF005.jpg	MF006.jpg
21.0188398999162	1.01667959999759	win	NaN	n/a	n/a	MF005.jpg	MF006.jpg
23.8020092999795	3.00074639997911	decision	2.28300609998405	left	F	FF001.jpg	FF002.jpg
27.3520034999819	1.00043709995225	win	NaN	n/a	n/a	FF001.jpg	FF002.jpg
32.2023885999806	3.00137199996971	decision	2.53364549996331	right	F	FF003.jpg	FF004.jpg
35.7524034000235	1.00002409995068	loss	NaN	n/a	n/a	FF003.jpg	FF004.jpg
42.7189591999631	3.00146449997555	decision	2.28264160000253	left	M	MF007.jpg	MF008.jpg
46.269218100002	1.01657320000231	loss	NaN	n/a	n/a	MF007.jpg	MF008.jpg
51.135819499963	3.00185340002645	decision	2.53387849999126	right	M	MF009.jpg	MF010.jpg
54.6859137999127	1.01659510005265	win	NaN	n/a	n/a	MF009.jpg	MF010.jpg
59.5526623999467	3.00109520007391	decision	2.03239489998668	left	F	FF005.jpg	FF006.jpg
63.1027124000248	1.01658859988675	loss	NaN	n/a	n/a	FF005.jpg	FF006.jpg
65.8858506999677	3.00120020005852	decision	2.03365690005012	left	F	FF007.jpg	FF008.jpg
69.436048100004	1.00032639992423	win	NaN	n/a	n/a	FF007.jpg	FF008.jpg
72.2026656999951	3.0015138000017	decision	2.53462539997417	right	F	FF009.jpg	FF010.jpg
75.7528879999882	1.0000326000154	win	NaN	n/a	n/a	FF009.jpg	FF010.jpg
78.5196187000256	3.00215189997107	decision	2.55083179997746	left	F	FF011.jpg	FF012.jpg
82.0694527999731	1.01661129994318	loss	NaN	n/a	n/a	FF011.jpg	FF012.jpg
86.9530498000095	3.00086979998741	decision	2.28214039991144	left	M	MF011.jpg	MF012.jpg
90.5031830000225	1.01676729996689	loss	NaN	n/a	n/a	MF011.jpg	MF012.jpg
93.2864527999191	3.0022155001061	decision	2.79996780003421	right	M	MF013.jpg	MF014.jpg
96.8365587999579	1.01630719995592	win	NaN	n/a	n/a	MF013.jpg	MF014.jpg
103.819657000015	3.00170989998151	decision	2.03381789999548	left	M	MF015.jpg	MF016.jpg
107.36975079996	1.00002749997657	win	NaN	n/a	n/a	MF015.jpg	MF016.jpg
110.120023099938	3.00196730007883	decision	2.79972700006329	left	F	FF013.jpg	FF014.jpg
113.669994199998	1.00000889995135	win	NaN	n/a	n/a	FF013.jpg	FF014.jpg
120.620066099917	3.00109300005715	decision	2.53311200009193	left	M	MF017.jpg	MF018.jpg
124.169861199916	1.00004700000864	win	NaN	n/a	n/a	MF017.jpg	MF018.jpg
129.036658699973	3.00177610001992	decision	2.29969390004408	left	F	FF015.jpg	FF016.jpg
132.586830099928	1.00003480003215	win	NaN	n/a	n/a	FF015.jpg	FF016.jpg
137.45331319992	3.00227430008817	decision	2.53280220006127	left	M	MF019.jpg	MF020.jpg
141.003583999933	1.01666810002644	win	NaN	n/a	n/a	MF019.jpg	MF020.jpg
145.870409899973	3.00128179998137	decision	2.03351049998309	left	F	FF017.jpg	FF018.jpg
149.420009199996	1.000554200029	win	NaN	n/a	n/a	FF017.jpg	FF018.jpg
162.687008399982	3.00131129997317	decision	2.5336594999535	right	M	MF021.jpg	MF022.jpg
166.237052300014	1.00003170000855	loss	NaN	n/a	n/a	MF021.jpg	MF022.jpg
173.187359599979	3.00185550004244	decision	2.7995641999878	left	M	MF023.jpg	MF024.jpg
176.737497000024	1.01629759999923	win	NaN	n/a	n/a	MF023.jpg	MF024.jpg
183.703988399939	3.00109889998566	decision	2.04582230001688	left	M	MF025.jpg	MF026.jpg
187.254035399994	1.00065529998392	loss	NaN	n/a	n/a	MF025.jpg	MF026.jpg
192.105302699958	3.00130859995261	decision	2.03129620000254	left	M	MF027.jpg	MF028.jpg
195.654045299976	1.00023360003252	loss	NaN	n/a	n/a	MF027.jpg	MF028.jpg
198.404333199956	3.00054370006546	decision	2.80032999999821	right	F	FF019.jpg	FF020.jpg
201.954224599991	1.00013369997032	loss	NaN	n/a	n/a	FF019.jpg	FF020.jpg
204.721061100019	3.00199239992071	decision	2.53468079993036	right	F	FF021.jpg	FF022.jpg
208.271296099992	1.01612789998762	win	NaN	n/a	n/a	FF021.jpg	FF022.jpg
215.254516999936	3.00167020002846	decision	1.78220920008607	left	M	MF029.jpg	MF030.jpg
218.804308300023	1.00018699991051	loss	NaN	n/a	n/a	MF029.jpg	MF030.jpg
225.754348199931	3.0009392000502	decision	2.5330417000223	right	M	MF031.jpg	MF032.jpg
229.304325699923	1.00002570007928	win	NaN	n/a	n/a	MF031.jpg	MF032.jpg
234.154736099998	3.00121919997036	decision	2.03205879998859	left	F	FF023.jpg	FF024.jpg
237.704412799911	1.00000710005406	loss	NaN	n/a	n/a	FF023.jpg	FF024.jpg
240.45466649998	3.0010824999772	decision	2.2824906000169	right	F	FF025.jpg	FF026.jpg
244.004632700002	1.00013689999469	win	NaN	n/a	n/a	FF025.jpg	FF026.jpg
248.871343199979	3.00105810002424	decision	1.78334590001032	left	F	FF027.jpg	FF028.jpg
252.422031799913	1.01619910006411	loss	NaN	n/a	n/a	FF027.jpg	FF028.jpg
255.204746100004	3.05069810000714	decision	3.050157199963	right	M	MF033.jpg	MF034.jpg
258.804926399956	1.00003150000703	loss	NaN	n/a	n/a	MF033.jpg	MF034.jpg
261.571676899912	3.0015542000765	decision	2.28245280007832	right	M	MF035.jpg	MF036.jpg
265.121453	1.0165061999578	loss	NaN	n/a	n/a	MF035.jpg	MF036.jpg
267.888330599992	3.00117339997087	decision	2.03344599995762	right	M	MF037.jpg	MF038.jpg
271.438235500013	1.00037829997018	win	NaN	n/a	n/a	MF037.jpg	MF038.jpg
278.405295899953	3.0008727000095	decision	2.28225529997144	left	F	FF029.jpg	FF030.jpg
281.955235300004	1.01645080000162	loss	NaN	n/a	n/a	FF029.jpg	FF030.jpg
284.738535900018	3.00132839998696	decision	2.28264019999187	right	F	FF031.jpg	FF032.jpg
288.288307499955	1.01665899995714	loss	NaN	n/a	n/a	FF031.jpg	FF032.jpg
293.155585299945	3.00084750005044	decision	2.53312530007679	left	F	FF033.jpg	FF034.jpg
296.705355899991	1.00000200001523	win	NaN	n/a	n/a	FF033.jpg	FF034.jpg
303.672199699911	3.00111790001392	decision	2.28227110009175	right	M	MF039.jpg	MF040.jpg
307.221835599979	1.00004179996904	loss	NaN	n/a	n/a	MF039.jpg	MF040.jpg
314.18888079992	3.00076329999138	decision	2.03322129999287	left	F	FF035.jpg	FF036.jpg
317.738963000011	1.01645739993546	win	NaN	n/a	n/a	FF035.jpg	FF036.jpg
320.505417999928	3.00131860002875	decision	2.5358163000783	left	F	FF037.jpg	FF038.jpg
324.055577799911	1.01643280009739	loss	NaN	n/a	n/a	FF037.jpg	FF038.jpg
326.838864299934	3.00114760000724	decision	2.79969360004179	right	F	FF039.jpg	FF040.jpg
330.388806500006	1.00052839994896	loss	NaN	n/a	n/a	FF039.jpg	FF040.jpg
