onset	duration	trial_type	rt	resp	gender	image_left	image_right
0.637133500073105	3.00153049989603	decision	1.78322519990616	left	M	MF001.jpg	MF002.jpg
4.18724570004269	1.01622530003078	win	NaN	n/a	n/a	MF001.jpg	MF002.jpg
11.1705019001383	3.00089929997921	decision	2.03235169989057	right	M	MF003.jpg	MF004.jpg
14.7204925001133	1.01654649991542	loss	NaN	n/a	n/a	MF003.jpg	MF004.jpg
17.4871225000825	3.00153709994629	decision	2.28313039988279	right	M	MF005.jpg	MF006.jpg
21.0371664001141	1.01644139993005	win	NaN	n/a	n/a	MF005.jpg	MF006.jpg
23.803667700151	3.00089599983767	decision	2.28314700000919	left	F	FF001.jpg	FF002.jpg
27.3535609000828	1.00002039992251	win	NaN	n/a	n/a	FF001.jpg	FF002.jpg
32.2036499001551	3.00063909986056	decision	1.78303729998879	left	F	FF003.jpg	FF004.jpg
35.7536804999691	1.01665180013515	loss	NaN	n/a	n/a	FF003.jpg	FF004.jpg
42.7202322001103	3.00103299994953	decision	2.03335059992969	left	M	MF007.jpg	MF008.jpg
46.27008450008	1.00014759995975	loss	NaN	n/a	n/a	MF007.jpg	MF008.jpg
51.1203612999525	3.00095840007998	decision	2.03328850003891	left	M	MF009.jpg	MF010.jpg
54.6701194001362	1.00011419993825	win	NaN	n/a	n/a	MF009.jpg	MF010.jpg
59.5202975999564	3.00138160004281	decision	2.03231150005013	right	F	FF005.jpg	FF006.jpg
63.0702299000695	1.01657980005257	loss	NaN	n/a	n/a	FF005.jpg	FF006.jpg
65.8367480000015	3.00197300012223	decision	2.2829193000216	left	F	FF007.jpg	FF008.jpg
69.3868381001521	1.01669860002585	win	NaN	n/a	n/a	FF007.jpg	FF008.jpg
72.1534883000422	3.00142970005982	decision	2.53342350013554	left	F	FF009.jpg	FF010.jpg
75.7034436000977	1.00001810002141	win	NaN	n/a	n/a	FF009.jpg	FF010.jpg
78.4534649001434	3.05031379987486	decision	3.049769599922	left	F	FF011.jpg	FF012.jpg
82.0534165001009	1.00004409998655	loss	NaN	n/a	n/a	FF011.jpg	FF012.jpg
86.9037852000911	3.00179470004514	decision	2.54994420008734	left	M	MF011.jpg	MF012.jpg
90.4533903000411	1.00005799997598	loss	NaN	n/a	n/a	MF011.jpg	MF012.jpg
93.2034583000932	3.00089469994418	decision	2.28320349985734	left	M	MF013.jpg	MF014.jpg
96.7533718000632	1.01672720001079	win	NaN	n/a	n/a	MF013.jpg	MF014.jpg
103.720055000158	3.00140579999425	decision	2.53465849999338	right	M	MF015.jpg	MF016.jpg
107.270089500118	1.01662679994479	win	NaN	n/a	n/a	MF015.jpg	MF016.jpg
110.036818000022	3.05027720006183	decision	3.04974570008926	left	F	FF013.jpg	FF014.jpg
113.636666700011	1.00034820009023	win	NaN	n/a	n/a	FF013.jpg	FF014.jpg
120.586795600131	3.00185539992526	decision	2.53484519990161	left	M	MF017.jpg	MF018.jpg
124.136697800132	1.01661939988844	win	NaN	n/a	n/a	MF017.jpg	MF018.jpg
129.003292100038	3.0013137999922	decision	2.28335459996015	left	F	FF015.jpg	FF016.jpg
132.553298500134	1.01667319983244	win	NaN	n/a	n/a	FF015.jpg	FF016.jpg
137.420018299948	3.00126010016538	decision	1.78349050018005	right	M	MF019.jpg	MF020.jpg
140.97001420008	1.01649730000645	win	NaN	n/a	n/a	MF019.jpg	MF020.jpg
145.836841200013	3.00160820013843	decision	1.7829967001453	right	F	FF017.jpg	FF018.jpg
149.386628800072	1.00000629993156	win	NaN	n/a	n/a	FF017.jpg	FF018.jpg
162.6365714001	3.00054679997265	decision	2.80028950003907	left	M	MF021.jpg	MF022.jpg
166.187356400071	1.01565399998799	loss	NaN	n/a	n/a	MF021.jpg	MF022.jpg
173.1532381	3.00119230011478	decision	2.03239760012366	left	M	MF023.jpg	MF024.jpg
176.703165400075	1.00017230003141	win	NaN	n/a	n/a	MF023.jpg	MF024.jpg
183.653266299982	3.00072300015017	decision	2.03321470017545	right	M	MF025.jpg	MF026.jpg
187.202928600134	1.01708619995043	loss	NaN	n/a	n/a	MF025.jpg	MF026.jpg
192.069864599966	3.00161220016889	decision	2.28263160004281	right	M	MF027.jpg	MF028.jpg
195.619742700132	1.01656210003421	loss	NaN	n/a	n/a	MF027.jpg	MF028.jpg
198.386550300056	3.00188630004413	decision	2.28276380011812	left	F	FF019.jpg	FF020.jpg
201.936245100107	1.00003220001236	loss	NaN	n/a	n/a	FF019.jpg	FF020.jpg
204.686282900162	3.00114830001257	decision	2.53424820001237	left	F	FF021.jpg	FF022.jpg
208.23628920014	1.01671070000157	win	NaN	n/a	n/a	FF021.jpg	FF022.jpg
215.203054300044	3.00135469995439	decision	2.53275620006025	right	M	MF029.jpg	MF030.jpg
218.752982900012	1.01667110016569	loss	NaN	n/a	n/a	MF029.jpg	MF030.jpg
225.719527800102	3.00195909989998	decision	2.03263360005803	left	M	MF031.jpg	MF032.jpg
229.26952020009	1.00007950002328	win	NaN	n/a	n/a	MF031.jpg	MF032.jpg
234.119975500042	3.00178169994615	decision	2.53295359993353	left	F	FF023.jpg	FF024.jpg
237.66949780006	1.01664220006205	loss	NaN	n/a	n/a	FF023.jpg	FF024.jpg
240.436251300154	3.00074349995703	decision	2.7991059999913	right	F	FF025.jpg	FF026.jpg
243.986105000135	1.00001299986616	win	NaN	n/a	n/a	FF025.jpg	FF026.jpg
248.836178200087	3.00107400002889	decision	2.28264630003832	left	F	FF027.jpg	FF028.jpg
252.386096199974	1.00007270020433	loss	NaN	n/a	n/a	FF027.jpg	FF028.jpg
255.152964500012	3.00055250013247	decision	2.53291910002008	left	M	MF033.jpg	MF034.jpg
258.702813199954	1.00002470007166	loss	NaN	n/a	n/a	MF033.jpg	MF034.jpg
261.469601799967	3.00138780009001	decision	2.7997539001517	left	M	MF035.jpg	MF036.jpg
265.019380999962	1.01674840017222	loss	NaN	n/a	n/a	MF035.jpg	MF036.jpg
267.786489800084	3.00185650005005	decision	2.28365710005164	left	M	MF037.jpg	MF038.jpg
271.336061000125	1.01670129992999	win	NaN	n/a	n/a	MF037.jpg	MF038.jpg
278.302834799979	3.00146690011024	decision	2.28251589997672	right	F	FF029.jpg	FF030.jpg
281.852696300019	1.00006210012361	loss	NaN	n/a	n/a	FF029.jpg	FF030.jpg
284.602709900122	3.00154199986719	decision	2.03347829985432	right	F	FF031.jpg	FF032.jpg
288.153012600029	1.01619520015083	loss	NaN	n/a	n/a	FF031.jpg	FF032.jpg
293.019398400094	3.00227830000222	decision	2.28388760006055	left	F	FF033.jpg	FF034.jpg
296.569249400171	1.00013859989122	win	NaN	n/a	n/a	FF033.jpg	FF034.jpg
303.519282700028	3.00192890013568	decision	2.78293610014953	left	M	MF039.jpg	MF040.jpg
307.069508200046	1.01616890006699	loss	NaN	n/a	n/a	MF039.jpg	MF040.jpg
314.036405100022	3.00196020002477	decision	2.53177640005015	left	F	FF035.jpg	FF036.jpg
317.585948199965	1.0164742001798	win	NaN	n/a	n/a	FF035.jpg	FF036.jpg
320.352703700075	3.0020300000906	decision	2.53252779995091	left	F	FF037.jpg	FF038.jpg
323.902533299988	1.00000890018418	loss	NaN	n/a	n/a	FF037.jpg	FF038.jpg
326.652511100052	3.0017768999096	decision	2.53277050005272	right	F	FF039.jpg	FF040.jpg
330.202580400044	1.01660649990663	loss	NaN	n/a	n/a	FF039.jpg	FF040.jpg
