onset	duration	trial_type	rt	resp	gender	image_left	image_right
0.650174200069159	3.00228539993986	decision	1.53292899997905	left	M	MF001.jpg	MF002.jpg
4.20013400004245	1.00007780012675	win	NaN	n/a	n/a	MF001.jpg	MF002.jpg
11.1671176000964	3.00121279992163	decision	1.5343084000051	left	M	MF003.jpg	MF004.jpg
14.7167977001518	1.01669289986603	loss	NaN	n/a	n/a	MF003.jpg	MF004.jpg
17.4837738000788	3.00144629995339	decision	1.78293220000342	right	M	MF005.jpg	MF006.jpg
21.0335208000615	1.01661640009843	win	NaN	n/a	n/a	MF005.jpg	MF006.jpg
23.8002345000859	3.0012701000087	decision	1.53358340007253	right	F	FF001.jpg	FF002.jpg
27.3500789001118	1.00000840006396	win	NaN	n/a	n/a	FF001.jpg	FF002.jpg
32.2006663000211	3.00158679997548	decision	1.53254800010473	left	F	FF003.jpg	FF004.jpg
35.7502367000561	1.00016420008615	loss	NaN	n/a	n/a	FF003.jpg	FF004.jpg
42.7002284000628	3.00120680010878	decision	1.53358780010603	left	M	MF007.jpg	MF008.jpg
46.2501719000284	1.01664329995401	loss	NaN	n/a	n/a	MF007.jpg	MF008.jpg
51.1169374000747	3.00101709994487	decision	1.53345960006118	left	M	MF009.jpg	MF010.jpg
54.666751800105	1.01683279988356	win	NaN	n/a	n/a	MF009.jpg	MF010.jpg
59.5335560999811	3.00087260012515	decision	1.78225870011374	left	F	FF005.jpg	FF006.jpg
63.0834119999781	1.00003950018436	loss	NaN	n/a	n/a	FF005.jpg	FF006.jpg
65.8334786000196	3.00077380007133	decision	1.78314590011723	right	F	FF007.jpg	FF008.jpg
69.3834460000508	1.00009230012074	win	NaN	n/a	n/a	FF007.jpg	FF008.jpg
72.1333687000442	3.0014528001193	decision	1.7825104999356	left	F	FF009.jpg	FF010.jpg
75.6834837000351	1.01663460000418	win	NaN	n/a	n/a	FF009.jpg	FF010.jpg
78.4500820999965	3.00070480001159	decision	1.78229200001806	right	F	FF011.jpg	FF012.jpg
82.0001811999828	1.0165135001298	loss	NaN	n/a	n/a	FF011.jpg	FF012.jpg
86.8667956001591	3.00158249982633	decision	1.5323469999712	right	M	MF011.jpg	MF012.jpg
90.4167455001734	1.00030479999259	loss	NaN	n/a	n/a	MF011.jpg	MF012.jpg
93.1672370999586	3.00141740008257	decision	1.78246030001901	right	M	MF013.jpg	MF014.jpg
96.7167380000465	1.01661280007102	win	NaN	n/a	n/a	MF013.jpg	MF014.jpg
103.683454500046	3.00133710005321	decision	1.78329030005261	left	M	MF015.jpg	MF016.jpg
107.233418000164	1.01680639991537	win	NaN	n/a	n/a	MF015.jpg	MF016.jpg
110.016730400035	3.00179160013795	decision	1.53294760012068	left	F	FF013.jpg	FF014.jpg
113.566467000172	1.00019629998133	win	NaN	n/a	n/a	FF013.jpg	FF014.jpg
120.533478300087	3.00159960007295	decision	1.53231639997102	right	M	MF017.jpg	MF018.jpg
124.08328300016	1.00002279994078	win	NaN	n/a	n/a	MF017.jpg	MF018.jpg
128.950061900076	3.0013041999191	decision	1.53277479996905	left	F	FF015.jpg	FF016.jpg
132.500212799991	1.01698269997723	win	NaN	n/a	n/a	FF015.jpg	FF016.jpg
137.366735100048	3.00077789998613	decision	1.78306069993414	left	M	MF019.jpg	MF020.jpg
140.916619000025	1.00006949994713	win	NaN	n/a	n/a	MF019.jpg	MF020.jpg
145.766731600044	3.00112630007789	decision	1.53310559992678	left	F	FF017.jpg	FF018.jpg
149.316619700054	1.01663729990833	win	NaN	n/a	n/a	FF017.jpg	FF018.jpg
162.583389200037	3.0008282000199	decision	1.78323870012537	left	M	MF021.jpg	MF022.jpg
166.1333629	1.01659080013633	loss	NaN	n/a	n/a	MF021.jpg	MF022.jpg
173.100189000135	3.00172439985909	decision	1.5347310998477	right	M	MF023.jpg	MF024.jpg
176.649930400075	1.0000660000369	win	NaN	n/a	n/a	MF023.jpg	MF024.jpg
183.616769599961	3.00109400018118	decision	1.53307100012898	left	M	MF025.jpg	MF026.jpg
187.166746400064	1.01656350004487	loss	NaN	n/a	n/a	MF025.jpg	MF026.jpg
192.050063400064	3.00185150001198	decision	2.03386360011064	right	M	MF027.jpg	MF028.jpg
195.599888400175	1.00000979984179	loss	NaN	n/a	n/a	MF027.jpg	MF028.jpg
198.36675860011	3.00047089997679	decision	1.78308289987035	left	F	FF019.jpg	FF020.jpg
201.916727300035	1.01646229997277	loss	NaN	n/a	n/a	FF019.jpg	FF020.jpg
204.683295000112	3.00120539986528	decision	1.53263009991497	right	F	FF021.jpg	FF022.jpg
208.233360999962	1.01650090003386	win	NaN	n/a	n/a	FF021.jpg	FF022.jpg
215.199908799957	3.00220550014637	decision	1.53374810004607	right	M	MF029.jpg	MF030.jpg
218.749810100067	1.00008710008115	loss	NaN	n/a	n/a	MF029.jpg	MF030.jpg
225.69999610004	3.0013041999191	decision	1.28378970013	left	M	MF031.jpg	MF032.jpg
229.249821400037	1.00002410006709	win	NaN	n/a	n/a	MF031.jpg	MF032.jpg
234.100122200092	3.00088279996999	decision	1.783204899868	left	F	FF023.jpg	FF024.jpg
237.649783300003	1.00006410013884	loss	NaN	n/a	n/a	FF023.jpg	FF024.jpg
240.416616600007	3.00088470010087	decision	1.53330090013333	right	F	FF025.jpg	FF026.jpg
243.96656940016	1.00009759981185	win	NaN	n/a	n/a	FF025.jpg	FF026.jpg
248.816638800083	3.00078759994358	decision	1.78364240005612	right	F	FF027.jpg	FF028.jpg
252.366696400102	1.00007289997302	loss	NaN	n/a	n/a	FF027.jpg	FF028.jpg
255.134131900035	3.00041620014235	decision	1.53220180002972	left	M	MF033.jpg	MF034.jpg
258.683177700033	1.01662619994022	loss	NaN	n/a	n/a	MF033.jpg	MF034.jpg
261.466581500135	3.001178199891	decision	1.53234969987534	right	M	MF035.jpg	MF036.jpg
265.016420600004	1.0000474001281	loss	NaN	n/a	n/a	MF035.jpg	MF036.jpg
267.783341400092	3.00111639988609	decision	1.282758400077	right	M	MF037.jpg	MF038.jpg
271.333156500012	1.00001980015077	win	NaN	n/a	n/a	MF037.jpg	MF038.jpg
278.299866300076	3.00094969989732	decision	1.2830487000756	left	F	FF029.jpg	FF030.jpg
281.849851400126	1.01655979990028	loss	NaN	n/a	n/a	FF029.jpg	FF030.jpg
284.616567100165	3.00208339979872	decision	1.53289919998497	left	F	FF031.jpg	FF032.jpg
288.166845500004	1.01631189999171	loss	NaN	n/a	n/a	FF031.jpg	FF032.jpg
293.03317690012	3.00159120000899	decision	1.53393130004406	left	F	FF033.jpg	FF034.jpg
296.583058099961	1.0000963001512	win	NaN	n/a	n/a	FF033.jpg	FF034.jpg
303.533209700137	3.00052939984016	decision	1.53342520003207	left	M	MF039.jpg	MF040.jpg
307.083136199974	1.01669210009277	loss	NaN	n/a	n/a	MF039.jpg	MF040.jpg
314.050207199994	3.00158870010637	decision	1.53372530010529	left	F	FF035.jpg	FF036.jpg
317.599786699982	1.01660460000858	win	NaN	n/a	n/a	FF035.jpg	FF036.jpg
320.383120300015	3.00141769996844	decision	1.7835959000513	left	F	FF037.jpg	FF038.jpg
323.933037300128	1.01681379997171	loss	NaN	n/a	n/a	FF037.jpg	FF038.jpg
326.716527299955	3.00152200018056	decision	1.78245630022138	right	F	FF039.jpg	FF040.jpg
330.266393300146	1.0001119999215	loss	NaN	n/a	n/a	FF039.jpg	FF040.jpg
