onset	duration	trial_type	rt	resp	gender	image_left	image_right
0.608208199962974	3.00186250009574	decision	2.299716800218448	left	D	DD017.jpg	DD018.jpg
4.15815869998187	1.00022729998454	loss	n/a	n/a	n/a	DD017.jpg	DD018.jpg
11.1081801999826	3.00195599999279	decision	2.7992903001140803	right	D	DD035.jpg	DD036.jpg
14.6582988000009	1.0165858999826	win	n/a	n/a	n/a	DD035.jpg	DD036.jpg
21.60806590016	3.00079049984924	decision	2.799218899803236	left	D	DD021.jpg	DD022.jpg
25.1583512001671	1.00004659988917	loss	n/a	n/a	n/a	DD021.jpg	DD022.jpg
32.0752818000037	3.00079110008664	decision	2.2822520001791418	right	S	SD025.jpg	SD026.jpg
35.6251406001393	1.00026989984326	loss	n/a	n/a	n/a	SD025.jpg	SD026.jpg
38.3583989001345	3.05027249990962	decision	3.049728399841115	left	S	SD027.jpg	SD028.jpg
41.9583466001786	1.00005169981159	loss	n/a	n/a	n/a	SD027.jpg	SD028.jpg
44.6750173000619	3.00160369998775	decision	2.2830431999173015	right	S	SD023.jpg	SD024.jpg
48.2251697001047	1.01679889997467	win	n/a	n/a	n/a	SD023.jpg	SD024.jpg
50.9752192001324	3.00193519983441	decision	1.7826594999060035	right	D	DD037.jpg	DD038.jpg
54.525041700108	1.00016309996136	win	n/a	n/a	n/a	DD037.jpg	DD038.jpg
59.3588543001097	3.05071670003235	decision	3.050170399947092	right	S	SD011.jpg	SD012.jpg
62.958534900099	1.00023970007896	loss	n/a	n/a	n/a	SD011.jpg	SD012.jpg
67.7753115000669	3.05032450007275	decision	3.0497753999661654	left	D	DD009.jpg	DD010.jpg
71.3753500999883	1.00009710015729	win	n/a	n/a	n/a	DD009.jpg	DD010.jpg
74.0925692999735	3.00113150011748	decision	2.2820772000122815	right	D	DD027.jpg	DD028.jpg
77.6423306001816	1.01660109986551	win	n/a	n/a	n/a	DD027.jpg	DD028.jpg
82.5091493001673	3.00118229980581	decision	2.5496767999138683	right	D	DD015.jpg	DD016.jpg
86.0590454000048	1.01632980001159	loss	n/a	n/a	n/a	DD015.jpg	DD016.jpg
93.0100142001174	3.00184040004387	decision	2.2814754999708384	left	S	SD029.jpg	SD030.jpg
96.559191999957	1.0163244002033	loss	n/a	n/a	n/a	SD029.jpg	SD030.jpg
101.392379400088	3.00156100001186	decision	2.0331574000883847	right	S	SD015.jpg	SD016.jpg
104.942379600136	1.01691280002706	win	n/a	n/a	n/a	SD015.jpg	SD016.jpg
111.875796900131	3.00167310005054	decision	2.2828674998600036	right	S	SD007.jpg	SD008.jpg
115.426022300031	1.01666550012305	win	n/a	n/a	n/a	SD007.jpg	SD008.jpg
120.275983600179	3.0017134998925	decision	2.5348153999075294	left	S	SD017.jpg	SD018.jpg
123.826063400134	1.00024769990705	win	n/a	n/a	n/a	SD017.jpg	SD018.jpg
126.559501500102	3.05050659994595	decision	3.049962699878961	left	D	DD033.jpg	DD034.jpg
130.159591600066	1.01641470007598	win	n/a	n/a	n/a	DD033.jpg	DD034.jpg
132.910221399972	3.29904240020551	decision	3.2984999001491815	right	D	DD007.jpg	DD008.jpg
136.759606900159	1.01649029995315	loss	n/a	n/a	n/a	DD007.jpg	DD008.jpg
139.493071299978	3.0502752000466	decision	3.0497424001805484	left	D	DD023.jpg	DD024.jpg
143.093044900103	1.01642900006846	loss	n/a	n/a	n/a	DD023.jpg	DD024.jpg
156.343188800151	3.00124519993551	decision	2.283234199974686	left	S	SD009.jpg	SD010.jpg
159.893022600096	1.00012059998699	loss	n/a	n/a	n/a	SD009.jpg	SD010.jpg
164.709710299969	3.00160690001212	decision	2.28347250004299	right	D	DD001.jpg	DD002.jpg
168.259938600007	1.01645150012337	win	n/a	n/a	n/a	DD001.jpg	DD002.jpg
171.026700400049	3.05089710000902	decision	3.0503303001169115	left	S	SD019.jpg	SD020.jpg
174.626936400076	1.01641130005009	loss	n/a	n/a	n/a	SD019.jpg	SD020.jpg
181.576650000177	3.00147919985466	decision	2.7845104997977614	right	D	DD031.jpg	DD032.jpg
185.126609600149	1.00020839995705	loss	n/a	n/a	n/a	DD031.jpg	DD032.jpg
189.943467600038	3.04980370006524	decision	3.0492621001321822	right	S	SD005.jpg	SD006.jpg
193.543782199966	1.01633980008774	win	n/a	n/a	n/a	SD005.jpg	SD006.jpg
196.310350600164	3.29959169984795	decision	3.299053099937737	left	D	DD019.jpg	DD020.jpg
200.160260900157	1.01657600002363	win	n/a	n/a	n/a	DD019.jpg	DD020.jpg
207.093560000183	3.00140979979187	decision	2.282913399860263	left	S	SD013.jpg	SD014.jpg
210.643708300078	1.01656339992769	loss	n/a	n/a	n/a	SD013.jpg	SD014.jpg
217.577199200168	3.00072039989755	decision	2.79904709989205	left	S	SD031.jpg	SD032.jpg
221.126957600005	1.01659470004961	loss	n/a	n/a	n/a	SD031.jpg	SD032.jpg
225.97696840018	3.30026649986394	decision	3.2997253998182714	right	D	DD039.jpg	DD040.jpg
229.827058000024	1.00017839996144	loss	n/a	n/a	n/a	DD039.jpg	DD040.jpg
232.560832499992	3.00054690008983	decision	2.800222499994561	right	D	DD005.jpg	DD006.jpg
236.11191870016	1.01534259994514	loss	n/a	n/a	n/a	DD005.jpg	DD006.jpg
243.060620300006	3.03917110012844	decision-missed	n/a	n/a	S	SD037.jpg	SD038.jpg
246.644139100099	1.01638639997691	loss	n/a	n/a	n/a	SD037.jpg	SD038.jpg
249.394035100006	3.00126990000717	decision	2.2826048000715673	left	S	SD039.jpg	SD040.jpg
252.943913700059	1.00045419996604	win	n/a	n/a	n/a	SD039.jpg	SD040.jpg
255.661230100086	3.29959589987993	decision	3.299053099937737	right	S	SD033.jpg	SD034.jpg
259.510674200021	1.00028700008988	loss	n/a	n/a	n/a	SD033.jpg	SD034.jpg
262.244352000067	3.0013749001082	decision	2.799698800081387	left	D	DD013.jpg	DD014.jpg
265.794285800075	1.01646449998952	win	n/a	n/a	n/a	DD013.jpg	DD014.jpg
270.627333400073	3.00162869994529	decision	1.5335279998835176	left	S	SD001.jpg	SD002.jpg
274.177843500162	1.0002710998524	win	n/a	n/a	n/a	SD001.jpg	SD002.jpg
276.910976200132	3.00075319991447	decision	2.2842466000001878	right	D	DD003.jpg	DD004.jpg
280.461115299957	1.00001480011269	win	n/a	n/a	n/a	DD003.jpg	DD004.jpg
285.277663300047	3.00119800004177	decision	2.533544300124049	right	S	SD003.jpg	SD004.jpg
288.827873500064	1.00003609992564	win	n/a	n/a	n/a	SD003.jpg	SD004.jpg
295.7453960001	3.00181559985504	decision	2.282827700022608	right	D	DD025.jpg	DD026.jpg
299.294665800175	1.01663739979267	win	n/a	n/a	n/a	DD025.jpg	DD026.jpg
306.244495500112	3.00070019997656	decision	2.5500602000392973	right	S	SD035.jpg	SD036.jpg
309.794787900057	1.01664349995553	win	n/a	n/a	n/a	SD035.jpg	SD036.jpg
312.544705500128	3.00095349992625	decision	1.7831283998675644	left	D	DD011.jpg	DD012.jpg
316.095004800009	1.01648740004748	loss	n/a	n/a	n/a	DD011.jpg	DD012.jpg
318.844985099975	3.00080520007759	decision	2.5340648000128567	right	S	SD021.jpg	SD022.jpg
322.394893400138	1.01649999991059	win	n/a	n/a	n/a	SD021.jpg	SD022.jpg
327.245051200036	3.00183239998296	decision	2.2819815000984818	right	D	DD029.jpg	DD030.jpg
330.794785400154	1.01660420000553	loss	n/a	n/a	n/a	DD029.jpg	DD030.jpg
