onset	duration	trial_type	rt	resp	gender	image_left	image_right
0.649934200104326	3.03669540002011	decision-missed	n/a	n/a	M	MF001.jpg	MF002.jpg
4.23308839998208	1.0001030000858	win	n/a	n/a	n/a	MF001.jpg	MF002.jpg
11.2000122000463	3.00165740004741	decision	1.7824168999213725	left	M	MF003.jpg	MF004.jpg
14.7497247001156	1.00027709989808	loss	n/a	n/a	n/a	MF003.jpg	MF004.jpg
17.4998838000465	3.00187189993449	decision	1.5336835999041796	right	M	MF005.jpg	MF006.jpg
21.0498155001551	1.01651059999131	win	n/a	n/a	n/a	MF005.jpg	MF006.jpg
23.8331602001563	3.00215650000609	decision	2.0329313999973238	right	F	FF001.jpg	FF002.jpg
27.3831587999593	1.0165376001969	win	n/a	n/a	n/a	FF001.jpg	FF002.jpg
32.2664445000701	3.00115059991367	decision	2.0325221000239253	right	F	FF003.jpg	FF004.jpg
35.8164201001637	1.01662239991128	loss	n/a	n/a	n/a	FF003.jpg	FF004.jpg
42.7997284999583	3.00056970003061	decision	2.80075340019539	left	M	MF007.jpg	MF008.jpg
46.3497069000732	1.00008770008571	loss	n/a	n/a	n/a	MF007.jpg	MF008.jpg
51.1999534999486	3.001677100081	decision	2.032484400086105	left	M	MF009.jpg	MF010.jpg
54.7497864000034	1.01652029994875	win	n/a	n/a	n/a	MF009.jpg	MF010.jpg
59.6330748000182	3.00110520003363	decision	1.7830753000453115	right	F	FF005.jpg	FF006.jpg
63.1830575999338	1.01656660018489	loss	n/a	n/a	n/a	FF005.jpg	FF006.jpg
65.9663231000304	3.00173570006154	decision	1.5331669000443071	left	F	FF007.jpg	FF008.jpg
69.5161902001128	1.00020919996314	win	n/a	n/a	n/a	FF007.jpg	FF008.jpg
72.2669645000715	3.00176079990342	decision	1.5315207000821829	right	F	FF009.jpg	FF010.jpg
75.8163443999365	1.00001360010356	win	n/a	n/a	n/a	FF009.jpg	FF010.jpg
78.5830103999469	3.00169890001416	decision	1.5338865001685917	left	F	FF011.jpg	FF012.jpg
82.1328954999335	1.01651670015417	loss	n/a	n/a	n/a	FF011.jpg	FF012.jpg
86.9995387000963	3.00079869991168	decision	2.2830286999233067	left	M	MF011.jpg	MF012.jpg
90.549799800152	1.01636729994789	loss	n/a	n/a	n/a	MF011.jpg	MF012.jpg
93.316129000159	3.00055239978246	decision	2.800247199833393	left	M	MF013.jpg	MF014.jpg
96.8661299999803	1.00007950002328	win	n/a	n/a	n/a	MF013.jpg	MF014.jpg
103.816278200131	3.00102879991755	decision	1.2834767999593168	left	M	MF015.jpg	MF016.jpg
107.366078099934	1.00010900013149	win	n/a	n/a	n/a	MF015.jpg	MF016.jpg
110.132909200154	3.00191319989972	decision	1.5326495999470353	right	F	FF013.jpg	FF014.jpg
113.682505300036	1.00016029994003	win	n/a	n/a	n/a	FF013.jpg	FF014.jpg
120.632777899969	3.00152739998884	decision	1.5331008001230657	left	M	MF017.jpg	MF018.jpg
124.18271900015	1.00003339978866	win	n/a	n/a	n/a	MF017.jpg	MF018.jpg
129.032737000147	3.00204659998417	decision	1.2827530999202281	left	F	FF015.jpg	FF016.jpg
132.582973800134	1.01651049987413	win	n/a	n/a	n/a	FF015.jpg	FF016.jpg
137.449311000062	3.00103699997999	decision	2.28318540006876	left	M	MF019.jpg	MF020.jpg
140.999319100054	1.01680739992298	win	n/a	n/a	n/a	MF019.jpg	MF020.jpg
145.865919700125	3.00148929981515	decision	1.7824570999946445	left	F	FF017.jpg	FF018.jpg
149.416085100034	1.01650150003843	win	n/a	n/a	n/a	FF017.jpg	FF018.jpg
162.699333300116	3.00143049983308	decision	1.5332986998837441	right	M	MF021.jpg	MF022.jpg
166.24914780003	1.00005659996532	loss	n/a	n/a	n/a	MF021.jpg	MF022.jpg
173.199959899997	3.00129529996775	decision	1.5333301001228392	left	M	MF023.jpg	MF024.jpg
176.749221600126	1.01663420000114	win	n/a	n/a	n/a	MF023.jpg	MF024.jpg
183.715906100115	3.0016596999485	decision	2.535218699835241	right	M	MF025.jpg	MF026.jpg
187.265970800072	1.01652689999901	loss	n/a	n/a	n/a	MF025.jpg	MF026.jpg
192.149376800051	3.00192800001241	decision	1.2838745000772178	left	M	MF027.jpg	MF028.jpg
195.699085999979	1.00001489999704	loss	n/a	n/a	n/a	MF027.jpg	MF028.jpg
198.465874500107	3.00051729986444	decision	1.2830264000222087	left	F	FF019.jpg	FF020.jpg
202.015779800015	1.0000329001341	loss	n/a	n/a	n/a	FF019.jpg	FF020.jpg
204.766179100145	3.00145969982259	decision	1.2820659999269992	left	F	FF021.jpg	FF022.jpg
208.315748699941	1.0001823999919	win	n/a	n/a	n/a	FF021.jpg	FF022.jpg
215.265727600083	3.00089180003852	decision	2.2831011000089347	left	M	MF029.jpg	MF030.jpg
218.815752899973	1.01657700003125	loss	n/a	n/a	n/a	MF029.jpg	MF030.jpg
225.782299099956	3.00140690011904	decision	2.5331435000989586	right	M	MF031.jpg	MF032.jpg
229.332261200063	1.0166841999162	win	n/a	n/a	n/a	MF031.jpg	MF032.jpg
234.199030800024	3.00197220011614	decision	1.7828536999877542	left	F	FF023.jpg	FF024.jpg
237.749007100007	1.01661369996145	loss	n/a	n/a	n/a	FF023.jpg	FF024.jpg
240.515656500123	3.00160349998623	decision	2.282656099880114	right	F	FF025.jpg	FF026.jpg
244.065598400077	1.00001209997572	win	n/a	n/a	n/a	FF025.jpg	FF026.jpg
248.932223400101	3.00194839993492	decision	1.782573299948126	left	F	FF027.jpg	FF028.jpg
252.482300800039	1.01664860011078	loss	n/a	n/a	n/a	FF027.jpg	FF028.jpg
255.24864450004	3.00122809992172	decision	2.2847202999982983	left	M	MF033.jpg	MF034.jpg
258.798819700023	1.00010389997624	loss	n/a	n/a	n/a	MF033.jpg	MF034.jpg
261.565635000123	3.00137760001235	decision	2.5348718999885023	right	M	MF035.jpg	MF036.jpg
265.115517700091	1.01660229987465	loss	n/a	n/a	n/a	MF035.jpg	MF036.jpg
267.882180300076	3.00075450004078	decision	2.299089999869466	left	M	MF037.jpg	MF038.jpg
271.432085599983	1.01679769996554	win	n/a	n/a	n/a	MF037.jpg	MF038.jpg
278.399198099971	3.00088860001415	decision	1.782146800076589	right	F	FF029.jpg	FF030.jpg
281.948794000084	1.00005099992268	loss	n/a	n/a	n/a	FF029.jpg	FF030.jpg
284.715532300062	3.00123560009524	decision	2.0332353999838233	right	F	FF031.jpg	FF032.jpg
288.265395200113	1.016609699931	loss	n/a	n/a	n/a	FF031.jpg	FF032.jpg
293.132146000164	3.00094739999622	decision	1.5334975998848677	right	F	FF033.jpg	FF034.jpg
296.681971100159	1.00015759980306	win	n/a	n/a	n/a	FF033.jpg	FF034.jpg
303.632222400047	3.04993929993361	decision	3.0493729999288917	left	M	MF039.jpg	MF040.jpg
307.231941600097	1.00014410004951	loss	n/a	n/a	n/a	MF039.jpg	MF040.jpg
314.182573999977	3.00175549997948	decision	1.7822972000576556	right	F	FF035.jpg	FF036.jpg
317.731950599933	1.01666660001501	win	n/a	n/a	n/a	FF035.jpg	FF036.jpg
320.515329499962	3.00161200016737	decision	2.5323621002025902	right	F	FF037.jpg	FF038.jpg
324.065273300046	1.01662539993413	loss	n/a	n/a	n/a	FF037.jpg	FF038.jpg
326.848653400084	3.00147049990483	decision	2.0335585998836905	right	F	FF039.jpg	FF040.jpg
330.398731600028	1.01650679996237	loss	n/a	n/a	n/a	FF039.jpg	FF040.jpg
