onset	duration	trial_type	rt	resp	gender	image_left	image_right
0.650215000030585	3.00154309999198	decision	2.5324241999769583	right	M	MF001.jpg	MF002.jpg
4.20004710002104	1.01656299998285	win	n/a	n/a	n/a	MF001.jpg	MF002.jpg
11.1837063000421	3.05041259998688	decision	3.049873799958732	left	M	MF003.jpg	MF004.jpg
14.7835006000241	1.01669279998168	loss	n/a	n/a	n/a	MF003.jpg	MF004.jpg
17.5502492000232	3.00221589999273	decision	2.2827952000079677	left	M	MF005.jpg	MF006.jpg
21.0999153000303	1.00005229999078	win	n/a	n/a	n/a	MF005.jpg	MF006.jpg
23.8503555000061	3.00089150003623	decision	2.0326597000239417	left	F	FF001.jpg	FF002.jpg
27.3999670000048	1.00000010000076	win	n/a	n/a	n/a	FF001.jpg	FF002.jpg
32.2499987000483	3.00094779999927	decision	1.7832388999522664	left	F	FF003.jpg	FF004.jpg
35.8001923999982	1.0004048999981	loss	n/a	n/a	n/a	FF003.jpg	FF004.jpg
42.7498849999974	3.00162870000349	decision	2.2837844000314362	left	M	MF007.jpg	MF008.jpg
46.299847700051	1.01672169996891	loss	n/a	n/a	n/a	MF007.jpg	MF008.jpg
51.1665989000467	3.00114269996993	decision	2.282478999986779	right	M	MF009.jpg	MF010.jpg
54.7166617000476	1.01667469996028	win	n/a	n/a	n/a	MF009.jpg	MF010.jpg
59.5833300000522	3.00112129998161	decision	2.0335441999486648	left	F	FF005.jpg	FF006.jpg
63.1332174999989	1.00002630002564	loss	n/a	n/a	n/a	FF005.jpg	FF006.jpg
65.8835684000514	3.00132839998696	decision	2.2823362999479286	left	F	FF007.jpg	FF008.jpg
69.4332653000019	1.01656730001559	win	n/a	n/a	n/a	FF007.jpg	FF008.jpg
72.1999610000057	3.00104140001349	decision	2.5333333000307903	left	F	FF009.jpg	FF010.jpg
75.7499088000041	1.00005970004713	win	n/a	n/a	n/a	FF009.jpg	FF010.jpg
78.4998660000274	3.00110679998761	decision	2.5334628999698907	left	F	FF011.jpg	FF012.jpg
82.0498154000379	1.01675800001249	loss	n/a	n/a	n/a	FF011.jpg	FF012.jpg
86.9169433000498	3.00235249998514	decision	2.5499519999721088	right	M	MF011.jpg	MF012.jpg
90.4665544000454	1.00018350000028	loss	n/a	n/a	n/a	MF011.jpg	MF012.jpg
93.2169194000307	3.00099939998472	decision	2.2832428999827243	right	M	MF013.jpg	MF014.jpg
96.7665269999998	1.01662940002279	win	n/a	n/a	n/a	MF013.jpg	MF014.jpg
103.733173300046	3.00145139999222	decision	2.2827423999551684	right	M	MF015.jpg	MF016.jpg
107.282962700003	1.00025250000181	win	n/a	n/a	n/a	MF015.jpg	MF016.jpg
110.033205400046	3.05017599998973	decision	3.049709199985955	left	F	FF013.jpg	FF014.jpg
113.633225600002	1.01649960002396	win	n/a	n/a	n/a	FF013.jpg	FF014.jpg
120.599832400039	3.00157309998758	decision	2.2829792000120506	right	M	MF017.jpg	MF018.jpg
124.149804000044	1.01660889998311	win	n/a	n/a	n/a	MF017.jpg	MF018.jpg
129.016613100015	3.00122340000235	decision	2.2832717000273988	left	F	FF015.jpg	FF016.jpg
132.56642410002	1.00010280002607	win	n/a	n/a	n/a	FF015.jpg	FF016.jpg
137.416609500011	3.00115289998939	decision	2.799557199992705	left	M	MF019.jpg	MF020.jpg
140.966395099997	1.00003970001126	win	n/a	n/a	n/a	MF019.jpg	MF020.jpg
145.816788199998	3.00196570000844	decision	2.0327174000558443	left	F	FF017.jpg	FF018.jpg
149.366363500012	1.00031430000672	win	n/a	n/a	n/a	FF017.jpg	FF018.jpg
162.616409500013	3.00213680003071	decision	2.532870900002308	left	M	MF021.jpg	MF022.jpg
166.166360100033	1.01665820000926	loss	n/a	n/a	n/a	MF021.jpg	MF022.jpg
173.133029400022	3.00052539998433	decision	2.7830454999930225	right	M	MF023.jpg	MF024.jpg
176.682935700053	1.00018839997938	win	n/a	n/a	n/a	MF023.jpg	MF024.jpg
183.633003399998	3.0015226000105	decision	2.0325118000037037	right	M	MF025.jpg	MF026.jpg
187.182919000043	1.00004559999797	loss	n/a	n/a	n/a	MF025.jpg	MF026.jpg
192.032860800042	3.00100469996687	decision	2.2833184999763034	left	M	MF027.jpg	MF028.jpg
195.583261100051	1.01628449995769	loss	n/a	n/a	n/a	MF027.jpg	MF028.jpg
198.350556500023	3.0009490000084	decision	2.798257599992212	left	F	FF019.jpg	FF020.jpg
201.899828399997	1.01637800002936	loss	n/a	n/a	n/a	FF019.jpg	FF020.jpg
204.68293530005	3.29975469998317	decision	3.299217299965676	right	F	FF021.jpg	FF022.jpg
208.532857200014	1.00003110000398	win	n/a	n/a	n/a	FF021.jpg	FF022.jpg
215.483075600001	3.05115130002378	decision	3.0506187000428326	right	M	MF029.jpg	MF030.jpg
219.082632400037	1.01666520000435	loss	n/a	n/a	n/a	MF029.jpg	MF030.jpg
226.049562300032	3.00192199996673	decision	2.7993573999847285	left	M	MF031.jpg	MF032.jpg
229.599804800004	1.01625270000659	win	n/a	n/a	n/a	MF031.jpg	MF032.jpg
234.466290300013	3.00052529998356	decision	2.800217000010889	left	F	FF023.jpg	FF024.jpg
238.01655260002	1.00026719999732	loss	n/a	n/a	n/a	FF023.jpg	FF024.jpg
240.766227700049	3.03704979998292	decision-missed	n/a	n/a	F	FF025.jpg	FF026.jpg
244.349461700011	1.00003910000669	win	n/a	n/a	n/a	FF025.jpg	FF026.jpg
249.199884000001	3.00125770003069	decision	2.0324066000175662	right	F	FF027.jpg	FF028.jpg
252.749423500034	1.01672979997238	loss	n/a	n/a	n/a	FF027.jpg	FF028.jpg
255.516538100026	3.00124020001385	decision	2.5330079999985173	left	M	MF033.jpg	MF034.jpg
259.067082700029	1.01550350000616	loss	n/a	n/a	n/a	MF033.jpg	MF034.jpg
261.832942100009	3.00190560001647	decision	2.282562200038228	left	M	MF035.jpg	MF036.jpg
265.382630700013	1.0001317000133	loss	n/a	n/a	n/a	MF035.jpg	MF036.jpg
268.132875500014	3.05004679999547	decision	3.0495229000225663	right	M	MF037.jpg	MF038.jpg
271.732644200034	1.00009579997277	win	n/a	n/a	n/a	MF037.jpg	MF038.jpg
278.683164900052	3.00058759999229	decision	2.283097399980761	right	F	FF029.jpg	FF030.jpg
282.232712300029	1.00000579998596	loss	n/a	n/a	n/a	FF029.jpg	FF030.jpg
284.982675000036	3.00075559999095	decision	2.5343416999676265	right	F	FF031.jpg	FF032.jpg
288.532634700008	1.00007380003808	loss	n/a	n/a	n/a	FF031.jpg	FF032.jpg
293.382639900025	3.00109630002407	decision	2.2834612000151537	left	F	FF033.jpg	FF034.jpg
296.932554300001	1.00004490005085	win	n/a	n/a	n/a	FF033.jpg	FF034.jpg
303.882734700048	3.00190849998035	decision	2.282546199974604	left	M	MF039.jpg	MF040.jpg
307.432752000052	1.01657419995172	loss	n/a	n/a	n/a	MF039.jpg	MF040.jpg
314.399437500047	3.00228179997066	decision	2.033990099967923	left	F	FF035.jpg	FF036.jpg
317.949384400039	1.01655419997405	win	n/a	n/a	n/a	FF035.jpg	FF036.jpg
320.732384800038	3.0022847999935	decision	2.0328757999814115	left	F	FF037.jpg	FF038.jpg
324.282552700024	1.01668509998126	loss	n/a	n/a	n/a	FF037.jpg	FF038.jpg
327.049364300037	3.00180309999269	decision	2.7842701000045054	left	F	FF039.jpg	FF040.jpg
330.599568000005	1.00029890000587	loss	n/a	n/a	n/a	FF039.jpg	FF040.jpg
