onset	duration	trial_type	rt	resp	gender	image_left	image_right
0.648617099970579	3.00082499999553	decision	2.2835149001330137	right	M	MF001.jpg	MF002.jpg
4.19906369992532	1.01632470008917	win	n/a	n/a	n/a	MF001.jpg	MF002.jpg
11.182479100069	3.00147709995508	decision	2.283389199990779	left	M	MF003.jpg	MF004.jpg
14.7320167000871	1.00039619999006	loss	n/a	n/a	n/a	MF003.jpg	MF004.jpg
17.4822023001034	3.00054009980522	decision	2.8000074999872595	left	M	MF005.jpg	MF006.jpg
21.0322499999311	1.00004389998503	win	n/a	n/a	n/a	MF005.jpg	MF006.jpg
23.798896699911	3.00081780017354	decision	2.0328510000836104	right	F	FF001.jpg	FF002.jpg
27.3489409000613	1.00074599985965	win	n/a	n/a	n/a	FF001.jpg	FF002.jpg
32.2157223999966	3.00081510003656	decision	2.0331665999256074	right	F	FF003.jpg	FF004.jpg
35.7656241999939	1.00035219988786	loss	n/a	n/a	n/a	FF003.jpg	FF004.jpg
42.7158888000995	3.00073839980178	decision	2.5341095998883247	left	M	MF007.jpg	MF008.jpg
46.2657842000481	1.00016699987464	loss	n/a	n/a	n/a	MF007.jpg	MF008.jpg
51.115923400037	3.00123499985784	decision	1.7836050000041723	right	M	MF009.jpg	MF010.jpg
54.6659274999984	1.00000149989501	win	n/a	n/a	n/a	MF009.jpg	MF010.jpg
59.5327472998761	3.00108780013397	decision	2.2834651002194732	left	F	FF005.jpg	FF006.jpg
63.0831502999645	1.01647250005044	loss	n/a	n/a	n/a	FF005.jpg	FF006.jpg
65.8493711999618	3.00127290003002	decision	1.7825243000406772	right	F	FF007.jpg	FF008.jpg
69.3993100998923	1.00003140000626	win	n/a	n/a	n/a	FF007.jpg	FF008.jpg
72.1664189998992	3.00137330009602	decision	2.0328025000635535	left	F	FF009.jpg	FF010.jpg
75.7162482000422	1.01684849988669	win	n/a	n/a	n/a	FF009.jpg	FF010.jpg
78.4828788000159	3.00146030005999	decision	2.282712399959564	right	F	FF011.jpg	FF012.jpg
82.0328520999756	1.00027550011873	loss	n/a	n/a	n/a	FF011.jpg	FF012.jpg
86.8828841000795	3.03504799981602	decision-missed	n/a	n/a	M	MF011.jpg	MF012.jpg
90.4662981999572	1.0000374999363	loss	n/a	n/a	n/a	MF011.jpg	MF012.jpg
93.2166530000977	3.00059929979034	decision	2.2825200997758657	right	M	MF013.jpg	MF014.jpg
96.7663491000421	1.01669029984623	win	n/a	n/a	n/a	MF013.jpg	MF014.jpg
103.733224000083	3.0009416998364	decision	2.0325987997930497	right	M	MF015.jpg	MF016.jpg
107.283168199938	1.01652409997769	win	n/a	n/a	n/a	MF015.jpg	MF016.jpg
110.049912800081	3.00145869981498	decision	2.283628199947998	left	F	FF013.jpg	FF014.jpg
113.599813200068	1.01671530003659	win	n/a	n/a	n/a	FF013.jpg	FF014.jpg
120.566943299957	3.0013798000291	decision	2.0328687999863178	right	M	MF017.jpg	MF018.jpg
124.116750600049	1.01675599999726	win	n/a	n/a	n/a	MF017.jpg	MF018.jpg
128.983921400039	3.00149860000238	decision	1.7827571998350322	left	F	FF015.jpg	FF016.jpg
132.533394200029	1.00006019999273	win	n/a	n/a	n/a	FF015.jpg	FF016.jpg
137.383837099886	3.03616520017385	decision-missed	n/a	n/a	M	MF019.jpg	MF020.jpg
140.966839599889	1.00000060000457	win	n/a	n/a	n/a	MF019.jpg	MF020.jpg
145.817066600081	3.0362228997983	decision-missed	n/a	n/a	F	FF017.jpg	FF018.jpg
149.400630600052	1.01647889986634	win	n/a	n/a	n/a	FF017.jpg	FF018.jpg
162.667431700043	3.00145359989256	decision	1.782339399913326	left	M	MF021.jpg	MF022.jpg
166.217255499912	1.01649650000036	loss	n/a	n/a	n/a	MF021.jpg	MF022.jpg
173.184220999945	3.00191089999862	decision	2.5329338000155985	right	M	MF023.jpg	MF024.jpg
176.733887299895	1.00026590004563	win	n/a	n/a	n/a	MF023.jpg	MF024.jpg
183.683965499979	3.00119400001131	decision	2.0327099000569433	right	M	MF025.jpg	MF026.jpg
187.23407529993	1.01651720004156	loss	n/a	n/a	n/a	MF025.jpg	MF026.jpg
192.101041499991	3.00099559989758	decision	1.7822012999095023	left	M	MF027.jpg	MF028.jpg
195.650625499897	1.00009720004164	loss	n/a	n/a	n/a	MF027.jpg	MF028.jpg
198.401107500074	3.0002684998326	decision	1.5322558998595923	right	F	FF019.jpg	FF020.jpg
201.950768199982	1.00023630005307	loss	n/a	n/a	n/a	FF019.jpg	FF020.jpg
204.700971500017	3.001147700008	decision	2.0325766999740154	left	F	FF021.jpg	FF022.jpg
208.250896200072	1.01651639980264	win	n/a	n/a	n/a	FF021.jpg	FF022.jpg
215.217757100007	3.00127950008027	decision	2.282446699915454	right	M	MF029.jpg	MF030.jpg
218.767655499978	1.00001169997267	loss	n/a	n/a	n/a	MF029.jpg	MF030.jpg
225.718065399909	3.00083809997886	decision	2.0322513000573963	left	M	MF031.jpg	MF032.jpg
229.267804800067	1.00019970000722	win	n/a	n/a	n/a	MF031.jpg	MF032.jpg
234.117872700095	3.00123469997197	decision	1.782658599782735	right	F	FF023.jpg	FF024.jpg
237.66816459992	1.01630540005863	loss	n/a	n/a	n/a	FF023.jpg	FF024.jpg
240.434616100043	3.00055289990269	decision	1.7832094999030232	right	F	FF025.jpg	FF026.jpg
243.984916500049	1.0163004999049	win	n/a	n/a	n/a	FF025.jpg	FF026.jpg
248.851391399978	3.00128780002706	decision	1.7835417001042515	right	F	FF027.jpg	FF028.jpg
252.401636499912	1.01642360002734	loss	n/a	n/a	n/a	FF027.jpg	FF028.jpg
255.168102500029	3.00134660000913	decision	2.0329034999012947	left	M	MF033.jpg	MF034.jpg
258.718330400065	1.01641879999079	loss	n/a	n/a	n/a	MF033.jpg	MF034.jpg
261.484868299915	3.00171720003709	decision	2.032561300089583	left	M	MF035.jpg	MF036.jpg
265.035093300045	1.01637459988706	loss	n/a	n/a	n/a	MF035.jpg	MF036.jpg
267.801565000089	3.00038809981197	decision	1.2832591999322176	right	M	MF037.jpg	MF038.jpg
271.351430499926	1.01673260005191	win	n/a	n/a	n/a	MF037.jpg	MF038.jpg
278.334926699987	3.03644279995933	decision-missed	n/a	n/a	F	FF029.jpg	FF030.jpg
281.918341299985	1.01665110001341	loss	n/a	n/a	n/a	FF029.jpg	FF030.jpg
284.68569199997	3.00107729993761	decision	2.284441899973899	right	F	FF031.jpg	FF032.jpg
288.234936000081	1.00007589999586	loss	n/a	n/a	n/a	FF031.jpg	FF032.jpg
293.085317600053	3.00179159990512	decision	2.282484899973497	left	F	FF033.jpg	FF034.jpg
296.635103899986	1.00043989997357	win	n/a	n/a	n/a	FF033.jpg	FF034.jpg
303.585268500028	3.00057190004736	decision	1.7835341999307275	right	M	MF039.jpg	MF040.jpg
307.135410000104	1.01659219991416	loss	n/a	n/a	n/a	MF039.jpg	MF040.jpg
314.102042400045	3.00081119989045	decision	2.283210099907592	right	F	FF035.jpg	FF036.jpg
317.652225800091	1.01630869996734	win	n/a	n/a	n/a	FF035.jpg	FF036.jpg
320.435439199908	3.00136000011116	decision	2.0325293000787497	left	F	FF037.jpg	FF038.jpg
323.985462100012	1.01660360000096	loss	n/a	n/a	n/a	FF037.jpg	FF038.jpg
326.752145899925	3.00083969999105	decision	1.2824189001694322	right	F	FF039.jpg	FF040.jpg
330.302198400022	1.00018949992955	loss	n/a	n/a	n/a	FF039.jpg	FF040.jpg
