onset	duration	trial_type	rt	resp	gender	image_left	image_right
0.603737600031309	3.00086090003606	decision	1.78333290002774	right	D	DD017.jpg	DD018.jpg
4.15384919999633	1.0167823000811	loss	NaN	n/a	n/a	DD017.jpg	DD018.jpg
11.1203707000241	3.00146319996566	decision	2.28281970007811	left	D	DD035.jpg	DD036.jpg
14.6707091000862	1.00015639991034	win	NaN	n/a	n/a	DD035.jpg	DD036.jpg
21.603922600043	3.00134499999695	decision	1.78276349999942	right	D	DD021.jpg	DD022.jpg
25.1538347000023	1.00006099999882	loss	NaN	n/a	n/a	DD021.jpg	DD022.jpg
32.0873814000515	3.00111950002611	decision	2.55032289994415	right	S	SD025.jpg	SD026.jpg
35.6376338000409	1.01627410005312	loss	NaN	n/a	n/a	SD025.jpg	SD026.jpg
38.387413599994	3.00207849999424	decision	1.7838030999992	left	S	SD027.jpg	SD028.jpg
41.9373895000899	1.00000289990567	loss	NaN	n/a	n/a	SD027.jpg	SD028.jpg
44.6542016000021	3.00126530008856	decision	1.78307360003237	right	S	SD023.jpg	SD024.jpg
48.2043914000969	1.0000079999445	win	NaN	n/a	n/a	SD023.jpg	SD024.jpg
50.9375430000946	3.0013732999796	decision	1.53351089998614	right	D	DD037.jpg	DD038.jpg
54.487559500034	1.00003580003977	win	NaN	n/a	n/a	DD037.jpg	DD038.jpg
59.3212971000466	3.00181869999506	decision	2.55063930002507	right	S	SD011.jpg	SD012.jpg
62.870897200075	1.00016840000171	loss	NaN	n/a	n/a	SD011.jpg	SD012.jpg
67.6877076000674	3.00078230001964	decision	2.03325859992765	left	D	DD009.jpg	DD010.jpg
71.237738900003	1.01656000001822	win	NaN	n/a	n/a	DD009.jpg	DD010.jpg
73.9710285000037	3.00241070007905	decision	2.28253399999812	left	D	DD027.jpg	DD028.jpg
77.5211365000578	1.01664479996543	win	NaN	n/a	n/a	DD027.jpg	DD028.jpg
82.3881753000896	3.00184139993507	decision	1.78295979998074	right	D	DD015.jpg	DD016.jpg
85.9379652000498	1.00021329999436	loss	NaN	n/a	n/a	DD015.jpg	DD016.jpg
92.8715350000421	3.00133330002427	decision	2.79988329997286	left	S	SD029.jpg	SD030.jpg
96.4214624000015	1.00017270003445	loss	NaN	n/a	n/a	SD029.jpg	SD030.jpg
101.238090400002	3.00111449998803	decision	1.53348179999739	left	S	SD015.jpg	SD016.jpg
104.788152100053	1.01657720003277	win	NaN	n/a	n/a	SD015.jpg	SD016.jpg
111.72182690003	3.00115390005521	decision	1.78219130006619	left	S	SD007.jpg	SD008.jpg
115.271640200051	1.00013860000763	win	NaN	n/a	n/a	SD007.jpg	SD008.jpg
120.104977200041	3.00116029998753	decision	1.78263250004966	right	S	SD017.jpg	SD018.jpg
123.655214700033	1.0165334000485	win	NaN	n/a	n/a	SD017.jpg	SD018.jpg
126.405019800062	3.0014693000121	decision	2.03389069996774	right	D	DD033.jpg	DD034.jpg
129.954929800006	1.00000980007462	win	NaN	n/a	n/a	DD033.jpg	DD034.jpg
132.688441400067	3.00205330003519	decision	2.03299809992313	left	D	DD007.jpg	DD008.jpg
136.238656500005	1.00047140009701	loss	NaN	n/a	n/a	DD007.jpg	DD008.jpg
138.955333200051	3.00181289995089	decision	1.78257999999914	right	D	DD023.jpg	DD024.jpg
142.505139000015	1.01672930002678	loss	NaN	n/a	n/a	DD023.jpg	DD024.jpg
155.755661000032	3.00160560000222	decision	2.03352970001288	left	S	SD009.jpg	SD010.jpg
159.305285900016	1.00006109999958	loss	NaN	n/a	n/a	SD009.jpg	SD010.jpg
164.1221257	3.0010758000426	decision	1.5322919000173	right	D	DD001.jpg	DD002.jpg
167.672062300029	1.00003420002759	win	NaN	n/a	n/a	DD001.jpg	DD002.jpg
170.422065600054	3.00126379996073	decision	1.53336000000127	right	S	SD019.jpg	SD020.jpg
173.972070100019	1.00012650003191	loss	NaN	n/a	n/a	SD019.jpg	SD020.jpg
180.905580800027	3.00166139996145	decision	2.03392680000979	left	D	DD031.jpg	DD032.jpg
184.455562100047	1.00000140001066	loss	NaN	n/a	n/a	DD031.jpg	DD032.jpg
189.272324400023	3.00093360000756	decision	2.3000681999838	right	S	SD005.jpg	SD006.jpg
192.822607300011	1.01632480008993	win	NaN	n/a	n/a	SD005.jpg	SD006.jpg
195.58921450004	3.0011542000575	decision	1.78359050001018	right	D	DD019.jpg	DD020.jpg
199.138951300061	1.00011409993749	win	NaN	n/a	n/a	DD019.jpg	DD020.jpg
206.056096100016	3.00168720004149	decision	2.03256139997393	right	S	SD013.jpg	SD014.jpg
209.605804800056	1.00003400002606	loss	NaN	n/a	n/a	SD013.jpg	SD014.jpg
216.522799100028	3.0013714999659	decision	2.53480949997902	left	S	SD031.jpg	SD032.jpg
220.07262900006	1.00001019996125	loss	NaN	n/a	n/a	SD031.jpg	SD032.jpg
224.90608710004	3.00137549999636	decision	2.03240629995707	right	D	DD039.jpg	DD040.jpg
228.456167800003	1.00024780002423	loss	NaN	n/a	n/a	DD039.jpg	DD040.jpg
231.206110800034	3.00104969996028	decision	1.78258350002579	left	D	DD005.jpg	DD006.jpg
234.756106600049	1.00023470004089	loss	NaN	n/a	n/a	DD005.jpg	DD006.jpg
241.689590100083	3.00107969995588	decision	1.78261080000084	right	S	SD037.jpg	SD038.jpg
245.239786299993	1.01636100001633	loss	NaN	n/a	n/a	SD037.jpg	SD038.jpg
247.989627600065	3.00196909997612	decision	1.78253059997223	left	S	SD039.jpg	SD040.jpg
251.539574700058	1.01669149997178	win	NaN	n/a	n/a	SD039.jpg	SD040.jpg
254.273101800005	3.00112440006342	decision	2.28327030001674	left	S	SD033.jpg	SD034.jpg
257.823965999996	1.01568240008783	loss	NaN	n/a	n/a	SD033.jpg	SD034.jpg
260.573109499994	3.000954200048	decision	1.78236780001316	right	D	DD013.jpg	DD014.jpg
264.122988600051	1.00009009998757	win	NaN	n/a	n/a	DD013.jpg	DD014.jpg
268.956819800078	3.3003316000104	decision	3.29975040000863	left	S	SD001.jpg	SD002.jpg
272.806486600079	1.00004640000407	win	NaN	n/a	n/a	SD001.jpg	SD002.jpg
275.5397046	3.00109909998719	decision	1.53364969999529	right	D	DD003.jpg	DD004.jpg
279.091123900027	1.01556900003925	win	NaN	n/a	n/a	DD003.jpg	DD004.jpg
283.923344500014	3.00202910008375	decision	1.53251669998281	left	S	SD003.jpg	SD004.jpg
287.473285500077	1.01662090001628	win	NaN	n/a	n/a	SD003.jpg	SD004.jpg
294.406851000036	3.00207349995617	decision	2.03277120005805	left	D	DD025.jpg	DD026.jpg
297.95672830008	1.01648939994629	win	NaN	n/a	n/a	DD025.jpg	DD026.jpg
304.907138700015	3.00125199998729	decision	2.28309639997315	right	S	SD035.jpg	SD036.jpg
308.4570061001	1.0165400999831	win	NaN	n/a	n/a	SD035.jpg	SD036.jpg
311.206849000067	3.0012498999713	decision	1.78262760001235	left	D	DD011.jpg	DD012.jpg
314.757201600005	1.01637580001261	loss	NaN	n/a	n/a	DD011.jpg	DD012.jpg
317.507012800081	3.00188330002129	decision	1.78396949998569	left	S	SD021.jpg	SD022.jpg
321.056897900067	1.00007980002556	win	NaN	n/a	n/a	SD021.jpg	SD022.jpg
325.890481900075	3.0009503000183	decision	2.03317389998119	right	D	DD029.jpg	DD030.jpg
329.440656100051	1.01674330001697	loss	NaN	n/a	n/a	DD029.jpg	DD030.jpg
