onset	duration	trial_type	rt	resp	gender	image_left	image_right
0.65152339998167	3.00152920000255	decision	1.53235160000622	left	F	FF017.jpg	FF018.jpg
4.20188579999376	1.01648769999156	loss	NaN	n/a	n/a	FF017.jpg	FF018.jpg
11.2019098000019	3.00029870000435	decision	1.03345069999341	right	F	FF035.jpg	FF036.jpg
14.752001899993	1.00000629998976	win	NaN	n/a	n/a	FF035.jpg	FF036.jpg
21.7189472999889	3.00163479999173	decision	1.03277719998732	right	F	FF021.jpg	FF022.jpg
25.2685050999862	1.00020740000764	loss	NaN	n/a	n/a	FF021.jpg	FF022.jpg
32.2353816999821	3.00177480001003	decision	1.28296839998802	left	M	MF025.jpg	MF026.jpg
35.7850373999681	1.01680580002721	loss	NaN	n/a	n/a	MF025.jpg	MF026.jpg
38.5684586999705	3.00119869998889	decision	1.03308850002941	right	M	MF027.jpg	MF028.jpg
42.1186719000107	1.00003459997242	loss	NaN	n/a	n/a	MF027.jpg	MF028.jpg
44.8855310999788	3.00162539997837	decision	1.28215610003099	left	M	MF023.jpg	MF024.jpg
48.4355391999707	1.01650910003809	win	NaN	n/a	n/a	MF023.jpg	MF024.jpg
51.2188696999801	3.00158620002912	decision	1.28287539997837	left	F	FF037.jpg	FF038.jpg
54.7687473999686	1.00013290002244	win	NaN	n/a	n/a	FF037.jpg	FF038.jpg
59.6355693999794	3.00188420002814	decision	1.53333970002132	left	M	MF011.jpg	MF012.jpg
63.1852266999776	1.0000388000044	loss	NaN	n/a	n/a	MF011.jpg	MF012.jpg
68.0524641000084	3.00038379995385	decision	1.03353309998056	right	F	FF009.jpg	FF010.jpg
71.6021835999563	1.01647720002802	win	NaN	n/a	n/a	FF009.jpg	FF010.jpg
74.3857287999708	3.00167910003802	decision	1.2829461999936	right	F	FF027.jpg	FF028.jpg
77.9352813999867	1.00025099999039	win	NaN	n/a	n/a	FF027.jpg	FF028.jpg
82.8025224999874	3.00104689999716	decision	1.2822020999738	left	F	FF015.jpg	FF016.jpg
86.3522304999642	1.0167316000443	loss	NaN	n/a	n/a	FF015.jpg	FF016.jpg
93.3358717999654	3.00151140004164	decision	1.03298660001019	right	M	MF029.jpg	MF030.jpg
96.8859166000038	1.00011669995729	loss	NaN	n/a	n/a	MF029.jpg	MF030.jpg
101.769820699992	3.00131479999982	decision	1.28220259997761	left	M	MF015.jpg	MF016.jpg
105.319511500013	1.01680909999413	win	NaN	n/a	n/a	MF015.jpg	MF016.jpg
112.302837299998	3.00110519997543	decision	1.28341609996278	left	M	MF007.jpg	MF008.jpg
115.852459899965	1.00009350001346	win	NaN	n/a	n/a	MF007.jpg	MF008.jpg
120.719615599955	3.00153820001287	decision	1.28244000003906	left	M	MF017.jpg	MF018.jpg
124.269633899967	1.01611620001495	win	NaN	n/a	n/a	MF017.jpg	MF018.jpg
127.052762000007	3.00011609995272	decision	1.28232639998896	right	F	FF033.jpg	FF034.jpg
130.602454799984	1.00017710000975	win	NaN	n/a	n/a	FF033.jpg	FF034.jpg
133.369601899991	3.00132799998391	decision	1.28274049999891	left	F	FF007.jpg	FF008.jpg
136.919605300005	1.01667149999412	loss	NaN	n/a	n/a	FF007.jpg	FF008.jpg
139.70310439996	3.00019590003649	decision	1.28201380005339	right	F	FF023.jpg	FF024.jpg
143.252866900002	1.00003170000855	loss	NaN	n/a	n/a	FF023.jpg	FF024.jpg
156.519713199988	3.00001179997344	decision	1.28234089998296	left	M	MF009.jpg	MF010.jpg
160.0695939	1.01669159997255	loss	NaN	n/a	n/a	MF009.jpg	MF010.jpg
164.953361699998	3.0004687999608	decision	1.53217899997253	right	F	FF001.jpg	FF002.jpg
168.503056099988	1.01682030002121	win	NaN	n/a	n/a	FF001.jpg	FF002.jpg
171.28674099996	3.00144220003858	decision	1.28312100004405	left	M	MF019.jpg	MF020.jpg
174.83658459998	1.00003100000322	loss	NaN	n/a	n/a	MF019.jpg	MF020.jpg
181.803183599957	3.00170670001535	decision	1.53229220001958	right	F	FF031.jpg	FF032.jpg
185.353356999985	1.01665649999632	loss	NaN	n/a	n/a	FF031.jpg	FF032.jpg
190.236838100012	3.00157089997083	decision	1.28360019996762	left	M	MF005.jpg	MF006.jpg
193.786510900012	1.00052289996529	win	NaN	n/a	n/a	MF005.jpg	MF006.jpg
196.553821699985	3.00121399998898	decision	1.78196420002496	right	F	FF019.jpg	FF020.jpg
200.103589800012	1.00006909994408	win	NaN	n/a	n/a	FF019.jpg	FF020.jpg
207.070538099972	3.00160630000755	decision	1.28341050003655	left	M	MF013.jpg	MF014.jpg
210.620421400003	1.00003049999941	loss	NaN	n/a	n/a	MF013.jpg	MF014.jpg
217.587311699986	3.00134989997605	decision	1.03290769999148	right	M	MF031.jpg	MF032.jpg
221.137019499962	1.01695820002351	loss	NaN	n/a	n/a	MF031.jpg	MF032.jpg
226.020612999971	3.00134750001598	decision	1.28349609998986	left	F	FF039.jpg	FF040.jpg
229.570444200013	1.01667649997398	loss	NaN	n/a	n/a	FF039.jpg	FF040.jpg
232.353683099966	3.00106020004023	decision	1.5323814000003	right	F	FF005.jpg	FF006.jpg
235.903844299959	1.01663640001789	loss	NaN	n/a	n/a	FF005.jpg	FF006.jpg
242.887021799979	3.00115879997611	decision	1.2824844000279	left	M	MF037.jpg	MF038.jpg
246.437025299994	1.00022549997084	loss	NaN	n/a	n/a	MF037.jpg	MF038.jpg
249.204106699966	3.00081220001448	decision	1.03215079999063	right	M	MF039.jpg	MF040.jpg
252.754076399957	1.00004310003715	win	NaN	n/a	n/a	MF039.jpg	MF040.jpg
255.520668299985	3.00107370002661	decision	1.53365009999834	left	M	MF033.jpg	MF034.jpg
259.07045140001	1.0000092999544	loss	NaN	n/a	n/a	MF033.jpg	MF034.jpg
261.837480599992	3.00113879999844	decision	1.28323689999525	left	F	FF013.jpg	FF014.jpg
265.387294599961	1.00013180001406	win	NaN	n/a	n/a	FF013.jpg	FF014.jpg
270.254117999983	3.00053650001064	decision	1.28363449999597	left	M	MF001.jpg	MF002.jpg
273.804156999977	1.00022540002828	win	NaN	n/a	n/a	MF001.jpg	MF002.jpg
276.571161500004	3.00076490000356	decision	1.28217789996415	right	F	FF003.jpg	FF004.jpg
280.120881300012	1.01651279994985	win	NaN	n/a	n/a	FF003.jpg	FF004.jpg
285.004284299968	3.00214240001515	decision	1.28293730004225	left	M	MF003.jpg	MF004.jpg
288.554319999996	1.00019689998589	win	NaN	n/a	n/a	MF003.jpg	MF004.jpg
295.521404500003	3.00101049995283	decision	1.28334089997225	right	F	FF025.jpg	FF026.jpg
299.070847199997	1.01705590001075	win	NaN	n/a	n/a	FF025.jpg	FF026.jpg
306.054630699975	3.0010317999986	decision	1.03260420000879	left	M	MF035.jpg	MF036.jpg
309.60449529998	0.999998699990101	win	NaN	n/a	n/a	MF035.jpg	MF036.jpg
312.371488399978	3.00235460000113	decision	1.5319553000154	left	F	FF011.jpg	FF012.jpg
315.921250299958	1.01633620000212	loss	NaN	n/a	n/a	FF011.jpg	FF012.jpg
318.704524500004	3.00016539997887	decision	1.28310619998956	left	M	MF021.jpg	MF022.jpg
322.254314599966	1.0006101000472	win	NaN	n/a	n/a	MF021.jpg	MF022.jpg
327.121263400011	3.00141379999695	decision	1.28344539995305	right	F	FF029.jpg	FF030.jpg
330.671284499986	1.01675599999726	loss	NaN	n/a	n/a	FF029.jpg	FF030.jpg
