onset	duration	trial_type	rt	resp	gender	image_left	image_right
0.596641700016335	3.00129039993044	decision	2.0335839999606833	right	S	SD001.jpg	SD002.jpg
4.14661459997296	1.00001000007614	win	n/a	n/a	n/a	SD001.jpg	SD002.jpg
11.0798321999609	3.00020280003082	decision	2.0333637000294402	right	S	SD003.jpg	SD004.jpg
14.6299596000463	1.01680509990547	loss	n/a	n/a	n/a	SD003.jpg	SD004.jpg
17.3634103999939	3.00208420003764	decision	1.7838810000102967	left	S	SD005.jpg	SD006.jpg
20.9133394999662	1.01651250000577	win	n/a	n/a	n/a	SD005.jpg	SD006.jpg
23.6465330000501	3.00118069991004	decision	1.7832204999867827	left	D	DD001.jpg	DD002.jpg
27.1966056999518	1.01653770008124	win	n/a	n/a	n/a	DD001.jpg	DD002.jpg
32.0466487000231	3.00209249998443	decision	1.7839770999271423	right	D	DD003.jpg	DD004.jpg
35.5965603999794	1.00003070000093	loss	n/a	n/a	n/a	DD003.jpg	DD004.jpg
42.5132708000019	3.30049049993977	decision	3.2999441999709234	left	S	SD007.jpg	SD008.jpg
46.3632771000266	1.01661059993785	loss	n/a	n/a	n/a	SD007.jpg	SD008.jpg
51.2131607000483	3.00096239999402	decision	2.033065399969928	right	S	SD009.jpg	SD010.jpg
54.7630773000419	1.00006280001253	win	n/a	n/a	n/a	SD009.jpg	SD010.jpg
59.5965255999472	3.30107060004957	decision	3.3004269000375643	left	D	DD005.jpg	DD006.jpg
63.4465484999819	1.01662040001247	loss	n/a	n/a	n/a	DD005.jpg	DD006.jpg
66.1965178999817	3.00095560005866	decision	2.0331247000722215	right	D	DD007.jpg	DD008.jpg
69.7464685000014	1.01665650005452	win	n/a	n/a	n/a	DD007.jpg	DD008.jpg
72.496544900001	3.00108980003279	decision	2.283549000043422	right	D	DD009.jpg	DD010.jpg
76.0464000999928	1.00022120005451	win	n/a	n/a	n/a	DD009.jpg	DD010.jpg
78.7797778999666	3.00112370005809	decision	1.5341272000223398	left	D	DD011.jpg	DD012.jpg
82.3296196999727	1.00006240000948	loss	n/a	n/a	n/a	DD011.jpg	DD012.jpg
87.1630800999701	3.00144480005838	decision	1.7831743999850005	left	S	SD011.jpg	SD012.jpg
90.7130681000417	1.00002409995068	loss	n/a	n/a	n/a	SD011.jpg	SD012.jpg
93.4297583999578	3.00190550007392	decision	2.0336739000631496	right	S	SD013.jpg	SD014.jpg
96.9797301000217	1.01644339994527	win	n/a	n/a	n/a	SD013.jpg	SD014.jpg
103.913105600048	3.00087829993572	decision	2.534004299901426	right	S	SD015.jpg	SD016.jpg
107.462983699981	1.01655170007143	win	n/a	n/a	n/a	SD015.jpg	SD016.jpg
110.213380299974	3.00053760001902	decision	2.8003210000460967	left	D	DD013.jpg	DD014.jpg
113.763071299996	1.01650459994562	win	n/a	n/a	n/a	DD013.jpg	DD014.jpg
120.713038300048	3.30096289992798	decision	3.300429299939424	right	S	SD017.jpg	SD018.jpg
124.56299190002	1.01660770003218	win	n/a	n/a	n/a	SD017.jpg	SD018.jpg
129.429546899977	3.05067630007397	decision	3.05013330001384	right	D	DD015.jpg	DD016.jpg
133.029566299985	1.01660780003294	win	n/a	n/a	n/a	DD015.jpg	DD016.jpg
137.896998199983	3.05087979999371	decision	3.050322200055234	right	S	SD019.jpg	SD020.jpg
141.496249299962	1.01663700002246	win	n/a	n/a	n/a	SD019.jpg	SD020.jpg
146.346349400003	3.00147839996498	decision	2.282808299991302	left	D	DD017.jpg	DD018.jpg
149.89621929999	1.0165532999672	win	n/a	n/a	n/a	DD017.jpg	DD018.jpg
163.146197899943	3.00076710002031	decision	2.0336913000792265	left	S	SD021.jpg	SD022.jpg
166.696114300052	1.0169061999768	loss	n/a	n/a	n/a	SD021.jpg	SD022.jpg
173.646199999959	3.00167969998438	decision	2.535567000042647	left	S	SD023.jpg	SD024.jpg
177.196174500044	1.00015069998335	win	n/a	n/a	n/a	SD023.jpg	SD024.jpg
184.112941700034	3.04263899999205	decision-missed	n/a	n/a	S	SD025.jpg	SD026.jpg
187.696058799978	1.016632999992	loss	n/a	n/a	n/a	SD025.jpg	SD026.jpg
192.546130800038	3.00153249991126	decision	1.7829931000014767	left	S	SD027.jpg	SD028.jpg
196.095975399949	1.00039360008668	loss	n/a	n/a	n/a	SD027.jpg	SD028.jpg
198.847400599974	3.00059329997748	decision	2.5480621000751853	left	D	DD019.jpg	DD020.jpg
202.396038700012	1.01661619998049	loss	n/a	n/a	n/a	DD019.jpg	DD020.jpg
205.146105200052	3.00181319995318	decision	1.5334066998912022	left	D	DD021.jpg	DD022.jpg
208.695976700052	1.00004149996676	win	n/a	n/a	n/a	DD021.jpg	DD022.jpg
215.629320799955	3.00159810006153	decision	2.5489548000041395	right	S	SD029.jpg	SD030.jpg
219.179201200022	1.01674089999869	loss	n/a	n/a	n/a	SD029.jpg	SD030.jpg
226.112753499998	3.00071569997817	decision	2.799174400046468	left	S	SD031.jpg	SD032.jpg
229.66246380005	1.00004719989374	win	n/a	n/a	n/a	SD031.jpg	SD032.jpg
234.479334800038	3.00047369999811	decision	2.2820838999468833	left	D	DD023.jpg	DD024.jpg
238.029422300053	1.00013409997337	loss	n/a	n/a	n/a	DD023.jpg	DD024.jpg
240.745860200026	3.00086929998361	decision	1.5325764999724925	left	D	DD025.jpg	DD026.jpg
244.296022500028	1.01640229998156	win	n/a	n/a	n/a	DD025.jpg	DD026.jpg
249.145854100003	3.00052110000979	decision	1.534141800017096	left	D	DD027.jpg	DD028.jpg
252.695781499962	1.00004960002843	loss	n/a	n/a	n/a	DD027.jpg	DD028.jpg
255.429173200042	3.00058859994169	decision	1.5336669000098482	left	S	SD033.jpg	SD034.jpg
258.979395700037	1.01612299995031	loss	n/a	n/a	n/a	SD033.jpg	SD034.jpg
261.729212500039	3.00215459999163	decision	2.799760099966079	right	S	SD035.jpg	SD036.jpg
265.279089799966	1.00005400006194	loss	n/a	n/a	n/a	SD035.jpg	SD036.jpg
268.012401800021	3.00188809994143	decision	1.2823990000179037	right	S	SD037.jpg	SD038.jpg
271.56229469995	1.00003370002378	win	n/a	n/a	n/a	SD037.jpg	SD038.jpg
278.495945499977	3.00090730004013	decision	1.534140900010243	right	D	DD029.jpg	DD030.jpg
282.045615599956	1.000073500094	loss	n/a	n/a	n/a	DD029.jpg	DD030.jpg
284.779161600047	3.00050069997087	decision	1.2831630998989567	right	D	DD031.jpg	DD032.jpg
288.329460600042	1.01613629993517	loss	n/a	n/a	n/a	DD031.jpg	DD032.jpg
293.179105499992	3.00196160003543	decision	1.2828635000623763	right	D	DD033.jpg	DD034.jpg
296.729027800029	1.0166101999348	win	n/a	n/a	n/a	DD033.jpg	DD034.jpg
303.679100799956	3.0012261000229	decision	1.533723400090821	right	S	SD039.jpg	SD040.jpg
307.229042200022	1.0165563999908	loss	n/a	n/a	n/a	SD039.jpg	SD040.jpg
314.195704099955	3.00158650008962	decision	2.5345931000774726	right	D	DD035.jpg	DD036.jpg
317.745604999945	1.00013490009587	win	n/a	n/a	n/a	DD035.jpg	DD036.jpg
320.478957899963	3.00248060002923	decision	2.7989540999988094	right	D	DD037.jpg	DD038.jpg
324.028906299965	1.00003049999941	loss	n/a	n/a	n/a	DD037.jpg	DD038.jpg
326.762253500056	3.00080699997488	decision	1.5323344999924302	right	D	DD039.jpg	DD040.jpg
330.312161299982	1.01673889998347	loss	n/a	n/a	n/a	DD039.jpg	DD040.jpg
