onset	duration	trial_type	rt	resp	gender	image_left	image_right
0.610601299995324	3.0007723000017	decision	1.78312779999396	left	S	SD001.jpg	SD002.jpg
4.16079699998954	1.01673360000132	win	NaN	n/a	n/a	SD001.jpg	SD002.jpg
11.1108555999963	3.00139340000169	decision	2.28199269999459	right	S	SD003.jpg	SD004.jpg
14.6610882999958	1.00051070000336	loss	NaN	n/a	n/a	SD003.jpg	SD004.jpg
17.3938208999898	3.00113960000454	decision	2.53434320000815	left	S	SD005.jpg	SD006.jpg
20.9438766999956	1.0166426999931	win	NaN	n/a	n/a	SD005.jpg	SD006.jpg
23.6770823999977	3.00155630000518	decision	2.29960879999271	left	D	DD001.jpg	DD002.jpg
27.2274080999923	1.01630119999754	win	NaN	n/a	n/a	DD001.jpg	DD002.jpg
32.0770625000005	3.00193129999388	decision	2.28355379999266	right	D	DD003.jpg	DD004.jpg
35.6271782999975	1.01657540000451	loss	NaN	n/a	n/a	DD003.jpg	DD004.jpg
42.5604290999909	3.00136730000668	decision	2.53455010001198	left	S	SD007.jpg	SD008.jpg
46.1107011999993	1.0163862999907	loss	NaN	n/a	n/a	SD007.jpg	SD008.jpg
50.9605031999963	3.00138359999983	decision	2.53513570000359	right	S	SD009.jpg	SD010.jpg
54.5107464999892	1.01648770000611	win	NaN	n/a	n/a	SD009.jpg	SD010.jpg
59.3772141999943	3.00201050000032	decision	2.79952909999702	left	D	DD005.jpg	DD006.jpg
62.92736039999	1.0163581000088	loss	NaN	n/a	n/a	DD005.jpg	DD006.jpg
65.6772062999953	3.00141759999678	decision	2.53412409999873	right	D	DD007.jpg	DD008.jpg
69.2273846000026	1.0162633999862	win	NaN	n/a	n/a	DD007.jpg	DD008.jpg
71.9772058999952	3.00150769999891	decision	1.7826298	left	D	DD009.jpg	DD010.jpg
75.5272810999886	1.00081250000221	win	NaN	n/a	n/a	DD009.jpg	DD010.jpg
78.260629299999	3.0017705999926	decision	2.28270599999814	left	D	DD011.jpg	DD012.jpg
81.8107074	1.01628929999424	loss	NaN	n/a	n/a	DD011.jpg	DD012.jpg
86.6605245999963	3.00149379999493	decision	2.53444699999818	left	S	SD011.jpg	SD012.jpg
90.2106019999919	1.00001600000542	loss	NaN	n/a	n/a	SD011.jpg	SD012.jpg
92.9439990999963	3.00096309999935	decision	2.28307239999413	left	S	SD013.jpg	SD014.jpg
96.4948495999997	1.0153086999926	win	NaN	n/a	n/a	SD013.jpg	SD014.jpg
103.427241600002	3.00249119999353	decision	2.28281849999621	left	S	SD015.jpg	SD016.jpg
106.977090999993	1.01659939999809	win	NaN	n/a	n/a	SD015.jpg	SD016.jpg
109.727043399995	3.00129539999762	decision	2.28273289999925	right	D	DD013.jpg	DD014.jpg
113.277062499998	1.01651509999647	win	NaN	n/a	n/a	DD013.jpg	DD014.jpg
120.22688219999	3.00131870000041	decision	2.53287090000231	left	S	SD017.jpg	SD018.jpg
123.77701369999	1.01687750000565	win	NaN	n/a	n/a	SD017.jpg	SD018.jpg
128.6436884	3.00163469999097	decision	2.28249129999313	right	D	DD015.jpg	DD016.jpg
132.193488299992	1.00009620000492	win	NaN	n/a	n/a	DD015.jpg	DD016.jpg
137.044427200002	3.00182929998846	decision	2.28235929999209	right	S	SD019.jpg	SD020.jpg
140.593859399989	1.01638050000474	win	NaN	n/a	n/a	SD019.jpg	SD020.jpg
145.426930799993	3.00125970000227	decision	2.28378670000529	right	D	DD017.jpg	DD018.jpg
148.976885800002	1.00022499999614	win	NaN	n/a	n/a	DD017.jpg	DD018.jpg
162.210606799999	3.00061849999474	decision	2.03206859999045	left	S	SD021.jpg	SD022.jpg
165.760215799994	1.00007249999908	loss	NaN	n/a	n/a	SD021.jpg	SD022.jpg
172.6769184	3.00189279999177	decision	2.53493650000019	left	S	SD023.jpg	SD024.jpg
176.227355900002	1.01639559998875	win	NaN	n/a	n/a	SD023.jpg	SD024.jpg
183.160260899997	3.00149120000424	decision	2.03263990000414	right	S	SD025.jpg	SD026.jpg
186.710254399994	1.01654850000341	loss	NaN	n/a	n/a	SD025.jpg	SD026.jpg
191.56014799999	3.001138800013	decision	1.78245110000717	left	S	SD027.jpg	SD028.jpg
195.110132999995	1.00039420000394	loss	NaN	n/a	n/a	SD027.jpg	SD028.jpg
197.860996699994	3.00112450000597	decision	2.28203109999595	left	D	DD019.jpg	DD020.jpg
201.410171900003	1.00037569999404	loss	NaN	n/a	n/a	DD019.jpg	DD020.jpg
204.143547200001	3.00132319999102	decision	2.03279259998817	right	D	DD021.jpg	DD022.jpg
207.69356	1.00017509999452	win	NaN	n/a	n/a	DD021.jpg	DD022.jpg
214.626708199998	3.00212979999196	decision	2.28288119999343	left	S	SD029.jpg	SD030.jpg
218.176487899997	1.00002009999298	loss	NaN	n/a	n/a	SD029.jpg	SD030.jpg
225.093505700002	3.00104789999023	decision	1.78334619999805	right	S	SD031.jpg	SD032.jpg
228.643569099993	1.01652130000002	win	NaN	n/a	n/a	SD031.jpg	SD032.jpg
233.476887099998	3.00148039999476	decision	2.53391749999719	left	D	DD023.jpg	DD024.jpg
237.026901799996	1.00069119999534	loss	NaN	n/a	n/a	DD023.jpg	DD024.jpg
239.743359	3.00150319999375	decision	2.79913139999553	left	D	DD025.jpg	DD026.jpg
243.293645099999	1.01650189999782	win	NaN	n/a	n/a	DD025.jpg	DD026.jpg
248.143484399989	3.00227540000924	decision	2.03287090000231	left	D	DD027.jpg	DD028.jpg
251.693688200001	1.01637949999713	loss	NaN	n/a	n/a	DD027.jpg	DD028.jpg
254.4435448	3.05132829998911	decision	3.05076949999784	right	S	SD033.jpg	SD034.jpg
258.044038299995	1.01607650000369	loss	NaN	n/a	n/a	SD033.jpg	SD034.jpg
260.793499299994	3.00090220000129	decision	1.78313609999896	right	S	SD035.jpg	SD036.jpg
264.343490899992	1.01659080000536	loss	NaN	n/a	n/a	SD035.jpg	SD036.jpg
267.093733899994	3.00074960000347	decision	2.03222639999876	right	S	SD037.jpg	SD038.jpg
270.643381499991	1.00007870000263	win	NaN	n/a	n/a	SD037.jpg	SD038.jpg
277.576638099999	3.00139299999864	decision	2.28262939999695	left	D	DD029.jpg	DD030.jpg
281.126576199997	1.0166559000063	loss	NaN	n/a	n/a	DD029.jpg	DD030.jpg
283.876893599998	3.0012229999993	decision	1.7826311999961	left	D	DD031.jpg	DD032.jpg
287.426679700002	1.00020519999089	loss	NaN	n/a	n/a	DD031.jpg	DD032.jpg
292.260020999995	3.00134659999458	decision	2.03271840000525	right	D	DD033.jpg	DD034.jpg
295.809825699995	1.00033939999412	win	NaN	n/a	n/a	DD033.jpg	DD034.jpg
302.743361599991	3.00119320000522	decision	2.28248900000472	left	S	SD039.jpg	SD040.jpg
306.293289900001	1.00023890000011	loss	NaN	n/a	n/a	SD039.jpg	SD040.jpg
313.243619200002	3.001168399991	decision	2.03270549999434	right	D	DD035.jpg	DD036.jpg
316.793238500002	1.00016979999782	win	NaN	n/a	n/a	DD035.jpg	DD036.jpg
319.526777599996	3.0023441999947	decision	2.28496129999985	right	D	DD037.jpg	DD038.jpg
323.076824999996	1.0163762000011	loss	NaN	n/a	n/a	DD037.jpg	DD038.jpg
325.827001400001	3.00092269999732	decision	2.28246209998906	left	D	DD039.jpg	DD040.jpg
329.376854100003	1.01630009998917	loss	NaN	n/a	n/a	DD039.jpg	DD040.jpg
