onset	duration	trial_type	rt	resp	gender	image_left	image_right
0.641658299951814	3.00055869994685	decision	2.8001876999624074	left	M	MF001.jpg	MF002.jpg
4.19157929997891	1.01674999995157	win	n/a	n/a	n/a	MF001.jpg	MF002.jpg
11.1751331000123	3.00174729991704	decision	2.2824964999454096	right	M	MF003.jpg	MF004.jpg
14.7250209999038	1.00003600004129	loss	n/a	n/a	n/a	MF003.jpg	MF004.jpg
17.4757752999431	3.00063300004695	decision	2.799182099988684	left	M	MF005.jpg	MF006.jpg
21.0251863999292	1.00001820002217	win	n/a	n/a	n/a	MF005.jpg	MF006.jpg
23.7752169999294	3.03739569999743	decision-missed	n/a	n/a	F	FF001.jpg	FF002.jpg
27.3585257999366	1.00003110000398	win	n/a	n/a	n/a	FF001.jpg	FF002.jpg
32.2086543999612	3.00145999994129	decision	2.533525999984704	right	F	FF003.jpg	FF004.jpg
35.758591299993	1.00009899993893	loss	n/a	n/a	n/a	FF003.jpg	FF004.jpg
42.7255007999483	3.00152010004967	decision	1.7833417999790981	left	M	MF007.jpg	MF008.jpg
46.2755276999669	1.00001700001303	loss	n/a	n/a	n/a	MF007.jpg	MF008.jpg
51.1422705999576	3.00169990002178	decision	2.2834740000544116	left	M	MF009.jpg	MF010.jpg
54.6923354999162	1.00002420006786	win	n/a	n/a	n/a	MF009.jpg	MF010.jpg
59.5424110000022	3.00127129990142	decision	2.532321999897249	right	F	FF005.jpg	FF006.jpg
63.0923848999664	1.01665280002635	loss	n/a	n/a	n/a	FF005.jpg	FF006.jpg
65.8590923999436	3.00230479997117	decision	2.5329805000219494	left	F	FF007.jpg	FF008.jpg
69.4092345999088	1.01638570008799	win	n/a	n/a	n/a	FF007.jpg	FF008.jpg
72.1759051999543	3.00181180005893	decision	2.2824698999756947	right	F	FF009.jpg	FF010.jpg
75.7258150000125	1.016609699931	win	n/a	n/a	n/a	FF009.jpg	FF010.jpg
78.4936282999115	3.00192970002536	decision	2.0314723000628874	left	F	FF011.jpg	FF012.jpg
82.0425578999566	1.01671859994531	loss	n/a	n/a	n/a	FF011.jpg	FF012.jpg
86.9094258999685	3.00147300004028	decision	2.533176700002514	right	M	MF011.jpg	MF012.jpg
90.4593466999941	1.00002789997961	loss	n/a	n/a	n/a	MF011.jpg	MF012.jpg
93.2095524999313	3.00146030005999	decision	2.0322690000757575	right	M	MF013.jpg	MF014.jpg
96.7594389999285	1.00042030005716	win	n/a	n/a	n/a	MF013.jpg	MF014.jpg
103.726310499944	3.00140910001937	decision	2.799807299976237	right	M	MF015.jpg	MF016.jpg
107.276249499992	1.00000629993156	win	n/a	n/a	n/a	MF015.jpg	MF016.jpg
110.026407199912	3.30041980009992	decision	3.299931399989873	right	F	FF013.jpg	FF014.jpg
113.876318499912	1.00000400003046	win	n/a	n/a	n/a	FF013.jpg	FF014.jpg
120.826455099974	3.00134640000761	decision	2.0333356999326497	left	M	MF017.jpg	MF018.jpg
124.37647909997	1.00000659993384	win	n/a	n/a	n/a	MF017.jpg	MF018.jpg
129.226605299977	3.00182859995402	decision	1.5329647000180557	left	F	FF015.jpg	FF016.jpg
132.77647069993	1.00021229998674	win	n/a	n/a	n/a	FF015.jpg	FF016.jpg
137.62658209994	3.00110700004734	decision	2.283151400042698	right	M	MF019.jpg	MF020.jpg
141.176570899901	1.01674510003068	win	n/a	n/a	n/a	MF019.jpg	MF020.jpg
146.043435400003	3.0013173999032	decision	2.032911099959165	left	F	FF017.jpg	FF018.jpg
149.593408799963	1.00003889994696	win	n/a	n/a	n/a	FF017.jpg	FF018.jpg
162.843541499926	3.00110330001917	decision	2.033452000003308	left	M	MF021.jpg	MF022.jpg
166.393570999964	1.00001680001151	loss	n/a	n/a	n/a	MF021.jpg	MF022.jpg
173.343630299903	3.00131419999525	decision	2.0328072000993416	left	M	MF023.jpg	MF024.jpg
176.893629399943	1.00007209996693	win	n/a	n/a	n/a	MF023.jpg	MF024.jpg
183.843822999974	3.00119370000903	decision	1.7837236999766901	left	M	MF025.jpg	MF026.jpg
187.393654599902	1.00020420004148	loss	n/a	n/a	n/a	MF025.jpg	MF026.jpg
192.243825399899	3.00145190011244	decision	2.79982720001135	left	M	MF027.jpg	MF028.jpg
195.794055799954	1.00002799998038	loss	n/a	n/a	n/a	MF027.jpg	MF028.jpg
198.544258999988	3.00084230001085	decision	2.284363599959761	right	F	FF019.jpg	FF020.jpg
202.094306899933	1.01636820007116	loss	n/a	n/a	n/a	FF019.jpg	FF020.jpg
204.860669799964	3.00092799996492	decision	2.2825702000409365	left	F	FF021.jpg	FF022.jpg
208.410752999946	1.01674180000555	win	n/a	n/a	n/a	FF021.jpg	FF022.jpg
215.377517699962	3.00061800004914	decision	2.2830183999612927	left	M	MF029.jpg	MF030.jpg
218.927634399966	1.0004189000465	loss	n/a	n/a	n/a	MF029.jpg	MF030.jpg
225.877548399963	3.00107510003727	decision	2.032598700025119	left	M	MF031.jpg	MF032.jpg
229.427555499948	1.00006770004984	win	n/a	n/a	n/a	MF031.jpg	MF032.jpg
234.277679399936	3.00195489998441	decision	2.2829184000147507	right	F	FF023.jpg	FF024.jpg
237.827687099925	1.01697700005025	loss	n/a	n/a	n/a	FF023.jpg	FF024.jpg
240.594891099958	3.00060370005667	decision	2.2830520999850705	right	F	FF025.jpg	FF026.jpg
244.144749399973	1.01650349993724	win	n/a	n/a	n/a	FF025.jpg	FF026.jpg
249.011158299982	3.00191490002908	decision	1.7829981999238953	right	F	FF027.jpg	FF028.jpg
252.56125499995	1.00000020000152	loss	n/a	n/a	n/a	FF027.jpg	FF028.jpg
255.311366199981	3.00130040000658	decision	2.0332090000156313	right	M	MF033.jpg	MF034.jpg
258.861571499961	1.00028799998108	loss	n/a	n/a	n/a	MF033.jpg	MF034.jpg
261.628094099928	3.00113650003914	decision	1.7825694000348449	right	M	MF035.jpg	MF036.jpg
265.178225299926	1.01637840003241	loss	n/a	n/a	n/a	MF035.jpg	MF036.jpg
267.944817599957	3.00176829996053	decision	2.282796200015582	left	M	MF037.jpg	MF038.jpg
271.494800799992	1.00022970000282	win	n/a	n/a	n/a	MF037.jpg	MF038.jpg
278.445014999947	3.00170839997008	decision	2.533946100040339	right	F	FF029.jpg	FF030.jpg
281.994907399989	1.00000090000685	loss	n/a	n/a	n/a	FF029.jpg	FF030.jpg
284.745300299954	3.29998010001145	decision	3.2994042000500485	left	F	FF031.jpg	FF032.jpg
288.594998199958	1.00000040000305	loss	n/a	n/a	n/a	FF031.jpg	FF032.jpg
293.44513030001	3.00202549993992	decision	2.534540099906735	right	F	FF033.jpg	FF034.jpg
296.995161599945	1.00021720002405	win	n/a	n/a	n/a	FF033.jpg	FF034.jpg
303.961887799902	3.00166240008548	decision	2.032484900089912	right	M	MF039.jpg	MF040.jpg
307.511892999988	1.01660809991881	loss	n/a	n/a	n/a	MF039.jpg	MF040.jpg
314.478557499941	3.00102460000198	decision	2.0331612000009045	left	F	FF035.jpg	FF036.jpg
318.028719399939	1.00004900002386	win	n/a	n/a	n/a	FF035.jpg	FF036.jpg
320.779268999933	3.04972880007699	decision	3.0491786000784487	right	F	FF037.jpg	FF038.jpg
324.378730099997	1.01662169990595	loss	n/a	n/a	n/a	FF037.jpg	FF038.jpg
327.145754199941	3.00180750002619	decision	2.2825755999656394	right	F	FF039.jpg	FF040.jpg
330.695376899908	1.00001700001303	loss	n/a	n/a	n/a	FF039.jpg	FF040.jpg
