onset	duration	trial_type	rt	resp	gender	image_left	image_right
0.643843900004867	3.00188940000953	decision	2.03244949999498	left	M	MF001.jpg	MF002.jpg
4.19392699998571	1.01661530003184	win	NaN	n/a	n/a	MF001.jpg	MF002.jpg
11.1770353000029	3.00073849997716	decision	2.80038169998443	left	M	MF003.jpg	MF004.jpg
14.7272765000234	1.01663699996425	loss	NaN	n/a	n/a	MF003.jpg	MF004.jpg
17.5104687000276	3.00189459999092	decision	2.54979329998605	right	M	MF005.jpg	MF006.jpg
21.0604455000139	1.01686079998035	win	NaN	n/a	n/a	MF005.jpg	MF006.jpg
23.8438075000304	3.0019732999499	decision	2.03263899998274	right	F	FF001.jpg	FF002.jpg
27.3940480999881	1.01676389999921	win	NaN	n/a	n/a	FF001.jpg	FF002.jpg
32.2780695999973	3.00077839998994	decision	1.78172560001258	left	F	FF003.jpg	FF004.jpg
35.8274823999964	1.01672980003059	loss	NaN	n/a	n/a	FF003.jpg	FF004.jpg
42.8110681999824	3.00057120004203	decision	2.80001510004513	left	M	MF007.jpg	MF008.jpg
46.3608913000207	1.00006319995737	loss	NaN	n/a	n/a	MF007.jpg	MF008.jpg
51.2274909000262	3.00058160000481	decision	2.80033810000168	right	M	MF009.jpg	MF010.jpg
54.7776686000288	1.00001859996701	win	NaN	n/a	n/a	MF009.jpg	MF010.jpg
59.6276696000132	3.00130970001919	decision	2.28383209998719	right	F	FF005.jpg	FF006.jpg
63.1775520999799	1.00010640005348	loss	NaN	n/a	n/a	FF005.jpg	FF006.jpg
65.9444510000176	3.0018697999767	decision	1.53390430001309	right	F	FF007.jpg	FF008.jpg
69.4943330999813	1.0167558999965	win	NaN	n/a	n/a	FF007.jpg	FF008.jpg
72.2780811000266	3.00233449996449	decision	2.548953599995	left	F	FF009.jpg	FF010.jpg
75.8277558999835	1.01684759999625	win	NaN	n/a	n/a	FF009.jpg	FF010.jpg
78.6111093999934	3.00193100003526	decision	2.53481929999543	right	F	FF011.jpg	FF012.jpg
82.1610635999823	1.00014750001719	loss	NaN	n/a	n/a	FF011.jpg	FF012.jpg
87.028083799989	3.00055410002824	decision	2.80030410003383	left	M	MF011.jpg	MF012.jpg
90.5779216000228	1.01669109996874	loss	NaN	n/a	n/a	MF011.jpg	MF012.jpg
93.3616349999793	3.00062470004195	decision	2.5487513000262	right	M	MF013.jpg	MF014.jpg
96.9112020999892	1.00019729998894	win	NaN	n/a	n/a	MF013.jpg	MF014.jpg
103.878262399987	3.00123870000243	decision	2.28564519999782	right	M	MF015.jpg	MF016.jpg
107.42829489999	1.01635799999349	win	NaN	n/a	n/a	MF015.jpg	MF016.jpg
110.211390500015	3.00174340000376	decision	2.03386109997518	right	F	FF013.jpg	FF014.jpg
113.761523700028	1.01677139999811	win	NaN	n/a	n/a	FF013.jpg	FF014.jpg
120.745151599986	3.00243260001298	decision	2.54999369999859	right	M	MF017.jpg	MF018.jpg
124.295153499988	1.01640840002801	win	NaN	n/a	n/a	MF017.jpg	MF018.jpg
129.178382200014	3.00133499997901	decision	1.7832043999806	right	F	FF015.jpg	FF016.jpg
132.72834229999	1.0003216000041	win	NaN	n/a	n/a	FF015.jpg	FF016.jpg
137.59503550001	3.0012216999894	decision	2.28424070001347	right	M	MF019.jpg	MF020.jpg
141.144994100032	1.01674419996561	win	NaN	n/a	n/a	MF019.jpg	MF020.jpg
146.028525400034	3.00129319995176	decision	2.53428779996466	left	F	FF017.jpg	FF018.jpg
149.578539700015	1.00000289996387	win	NaN	n/a	n/a	FF017.jpg	FF018.jpg
162.845299799985	3.00114090001443	decision	2.54943290003575	left	M	MF021.jpg	MF022.jpg
166.395460799977	1.01654570002574	loss	NaN	n/a	n/a	MF021.jpg	MF022.jpg
173.379140999983	3.00098690000596	decision	2.7850238000392	right	M	MF023.jpg	MF024.jpg
176.928968599997	1.01645639998605	win	NaN	n/a	n/a	MF023.jpg	MF024.jpg
183.912291500019	3.00195189996157	decision	2.55095559998881	right	M	MF025.jpg	MF026.jpg
187.462440399977	1.01645600004122	loss	NaN	n/a	n/a	MF025.jpg	MF026.jpg
192.345648100018	3.00263339997036	decision	2.03298079996603	left	M	MF027.jpg	MF028.jpg
195.895773800032	1.01669089996722	loss	NaN	n/a	n/a	MF027.jpg	MF028.jpg
198.679279200034	3.00182179996045	decision	2.28377129998989	right	F	FF019.jpg	FF020.jpg
202.228923899995	1.00030330003938	loss	NaN	n/a	n/a	FF019.jpg	FF020.jpg
204.995990600029	3.00037500000326	decision	2.03231419995427	left	F	FF021.jpg	FF022.jpg
208.545610400033	1.00036259996705	win	NaN	n/a	n/a	FF021.jpg	FF022.jpg
215.512732599978	3.00034430000233	decision	2.03218370000832	left	M	MF029.jpg	MF030.jpg
219.062457700027	1.00021119997837	loss	NaN	n/a	n/a	MF029.jpg	MF030.jpg
226.029349400022	3.00085389998276	decision	2.28243239998119	right	M	MF031.jpg	MF032.jpg
229.579650799977	1.01650140003767	win	NaN	n/a	n/a	MF031.jpg	MF032.jpg
234.463119300024	3.00174380000681	decision	2.28367719997186	left	F	FF023.jpg	FF024.jpg
238.012901999988	1.01641129999189	loss	NaN	n/a	n/a	FF023.jpg	FF024.jpg
240.796114100027	3.00068629998714	decision	2.28480480000144	right	F	FF025.jpg	FF026.jpg
244.346110899991	1.01666080002906	win	NaN	n/a	n/a	FF025.jpg	FF026.jpg
249.229866700014	3.00150509999366	decision	2.53430559998378	left	F	FF027.jpg	FF028.jpg
252.779579200025	1.00032579997787	loss	NaN	n/a	n/a	FF027.jpg	FF028.jpg
255.546316799999	3.00190339999972	decision	2.79991030000383	right	M	MF033.jpg	MF034.jpg
259.096450200013	1.01621899998281	loss	NaN	n/a	n/a	MF033.jpg	MF034.jpg
261.879864900024	3.00066069996683	decision	2.54914630000712	right	M	MF035.jpg	MF036.jpg
265.429851000023	1.01622190000489	loss	NaN	n/a	n/a	MF035.jpg	MF036.jpg
268.213382499991	3.00186140002916	decision	2.28424680000171	right	M	MF037.jpg	MF038.jpg
271.762803799997	1.00016629998572	win	NaN	n/a	n/a	MF037.jpg	MF038.jpg
278.730027500016	3.00152230000822	decision	1.78285929997219	right	F	FF029.jpg	FF030.jpg
282.279551999993	1.00004910002463	loss	NaN	n/a	n/a	FF029.jpg	FF030.jpg
285.046535699978	3.00061900005676	decision	2.7991857000161	left	F	FF031.jpg	FF032.jpg
288.596559600031	1.00024829996983	loss	NaN	n/a	n/a	FF031.jpg	FF032.jpg
293.463320899988	3.0013151000021	decision	2.55027430003975	left	F	FF033.jpg	FF034.jpg
297.013481699978	1.01625080005033	win	NaN	n/a	n/a	FF033.jpg	FF034.jpg
303.996992799977	3.00136730005033	decision	2.53349850000814	left	M	MF039.jpg	MF040.jpg
307.54692350002	1.01628219999839	loss	NaN	n/a	n/a	MF039.jpg	MF040.jpg
314.530197100015	3.00230039999587	decision	2.03259229997639	right	F	FF035.jpg	FF036.jpg
318.080122300016	1.01653889997397	win	NaN	n/a	n/a	FF035.jpg	FF036.jpg
320.864008600009	3.00107469997602	decision	2.54975130001549	left	F	FF037.jpg	FF038.jpg
324.41326489998	1.00018770003226	loss	NaN	n/a	n/a	FF037.jpg	FF038.jpg
327.180619999999	3.0008462999831	decision	2.79927560000215	right	F	FF039.jpg	FF040.jpg
330.730326400022	1.00009589997353	loss	NaN	n/a	n/a	FF039.jpg	FF040.jpg
