onset	duration	trial_type	rt	resp	gender	image_left	image_right
0.664450800046325	3.00332629983313	decision	2.28544189990498	left	F	FF017.jpg	FF018.jpg
4.21445890003815	1.01654799981043	loss	NaN	n/a	n/a	FF017.jpg	FF018.jpg
11.2144810999744	3.00083069992252	decision	2.03428560006432	right	F	FF035.jpg	FF036.jpg
14.7644694000483	1.00007739989087	win	NaN	n/a	n/a	FF035.jpg	FF036.jpg
21.7313035000116	3.00004579988308	decision	2.54916119994596	left	F	FF021.jpg	FF022.jpg
25.2813156000338	1.0166114999447	loss	NaN	n/a	n/a	FF021.jpg	FF022.jpg
32.2647706998978	3.00179650005884	decision	2.0328051999677	right	M	MF025.jpg	MF026.jpg
35.8146774999332	1.00001440010965	loss	NaN	n/a	n/a	MF025.jpg	MF026.jpg
38.5814084999729	3.00192609988153	decision	2.03350150003098	left	M	MF027.jpg	MF028.jpg
42.1314534998965	1.00000980007462	loss	NaN	n/a	n/a	MF027.jpg	MF028.jpg
44.8982193998527	3.00114810001105	decision	2.03413760010153	left	M	MF023.jpg	MF024.jpg
48.4481516999658	1.01670969999395	win	NaN	n/a	n/a	MF023.jpg	MF024.jpg
51.2314535998739	3.00127020012587	decision	1.78359410003759	right	F	FF037.jpg	FF038.jpg
54.7815952999517	1.01665799994953	win	NaN	n/a	n/a	FF037.jpg	FF038.jpg
59.6651031000074	3.00113509991206	decision	2.03332489985041	left	M	MF011.jpg	MF012.jpg
63.2150528999045	1.01658069994301	loss	NaN	n/a	n/a	MF011.jpg	MF012.jpg
68.0984489999246	3.00084679992869	decision	2.28425889997743	left	F	FF009.jpg	FF010.jpg
71.6483839000575	1.00002659996971	win	NaN	n/a	n/a	FF009.jpg	FF010.jpg
74.4151268999558	3.00161730009131	decision	1.78332929988392	right	F	FF027.jpg	FF028.jpg
77.9652092999313	1.01676769996993	win	NaN	n/a	n/a	FF027.jpg	FF028.jpg
82.8486174000427	3.00193959986791	decision	2.03336449991912	left	F	FF015.jpg	FF016.jpg
86.3985837998334	1.00001090019941	loss	NaN	n/a	n/a	FF015.jpg	FF016.jpg
93.3653502999805	3.00190849998035	decision	1.78285229997709	right	M	MF029.jpg	MF030.jpg
96.9152977999765	1.00000449991785	loss	NaN	n/a	n/a	MF029.jpg	MF030.jpg
101.781876199879	3.00159180001356	decision	2.03391230013222	left	M	MF015.jpg	MF016.jpg
105.332043200033	1.00004919990897	win	NaN	n/a	n/a	MF015.jpg	MF016.jpg
112.298831899883	3.00162310013548	decision	2.0337801000569	right	M	MF007.jpg	MF008.jpg
115.84883329994	1.01665819995105	win	NaN	n/a	n/a	MF007.jpg	MF008.jpg
120.732385199983	3.00151490001008	decision	2.0331440998707	right	M	MF017.jpg	MF018.jpg
124.282242299989	1.00006120000035	win	NaN	n/a	n/a	MF017.jpg	MF018.jpg
127.049026199849	3.00097280018963	decision	2.28301340015605	right	F	FF033.jpg	FF034.jpg
130.598970500054	1.00003579980694	win	NaN	n/a	n/a	FF033.jpg	FF034.jpg
133.365786500042	2.9997241999954	decision	2.30000389995985	right	F	FF007.jpg	FF008.jpg
136.915723899845	1.01662730006501	loss	NaN	n/a	n/a	FF007.jpg	FF008.jpg
139.699106399901	3.00143930013292	decision	2.53320790012367	right	F	FF023.jpg	FF024.jpg
143.248992099892	1.00021170009859	loss	NaN	n/a	n/a	FF023.jpg	FF024.jpg
156.515901400009	3.00113740004599	decision	2.03377259988338	right	M	MF009.jpg	MF010.jpg
160.065764900064	1.00010929978453	loss	NaN	n/a	n/a	MF009.jpg	MF010.jpg
164.932669099886	3.00217820005491	decision	2.04989120014943	left	F	FF001.jpg	FF002.jpg
168.482725099893	1.01667409995571	win	NaN	n/a	n/a	FF001.jpg	FF002.jpg
171.266299699899	3.00130630005151	decision	2.28357310011052	left	M	MF019.jpg	MF020.jpg
174.81603950006	1.00007849978283	loss	NaN	n/a	n/a	MF019.jpg	MF020.jpg
181.782702500001	3.00116039998829	decision	2.03310279990546	left	F	FF031.jpg	FF032.jpg
185.332799899857	1.00002899998799	loss	NaN	n/a	n/a	FF031.jpg	FF032.jpg
190.19974579988	3.00201710010879	decision	2.03470359998755	right	M	MF005.jpg	MF006.jpg
193.749566299841	1.00001449999399	win	NaN	n/a	n/a	MF005.jpg	MF006.jpg
196.516480099875	3.00078020012006	decision	2.30002550012432	left	F	FF019.jpg	FF020.jpg
200.066357000032	1.00005849986337	win	NaN	n/a	n/a	FF019.jpg	FF020.jpg
207.033066099975	3.0005379000213	decision	2.80028339987621	left	M	MF013.jpg	MF014.jpg
210.583061199868	0.999982200097293	loss	NaN	n/a	n/a	MF013.jpg	MF014.jpg
217.5498583999	3.001223300118	decision	1.7840744999703	right	M	MF031.jpg	MF032.jpg
221.099753699964	1.0001167000737	loss	NaN	n/a	n/a	MF031.jpg	MF032.jpg
225.966682499973	3.00086879986338	decision	2.28334000008181	right	F	FF039.jpg	FF040.jpg
229.51670529996	1.01650870009325	loss	NaN	n/a	n/a	FF039.jpg	FF040.jpg
232.300175399985	3.00100190006196	decision	2.28317709988914	left	F	FF005.jpg	FF006.jpg
235.849978100043	1.00005899998359	loss	NaN	n/a	n/a	FF005.jpg	FF006.jpg
242.816803500056	3.00072739995085	decision	1.78313599992543	right	M	MF037.jpg	MF038.jpg
246.366798199946	1.01664460008033	loss	NaN	n/a	n/a	MF037.jpg	MF038.jpg
249.150238199858	3.00099860015325	decision	2.03234550007619	left	M	MF039.jpg	MF040.jpg
252.700116199907	1.00000580004416	win	NaN	n/a	n/a	MF039.jpg	MF040.jpg
255.467000100063	3.00107899983414	decision	2.2832415997982	left	M	MF033.jpg	MF034.jpg
259.016916899942	1.00002359994687	loss	NaN	n/a	n/a	MF033.jpg	MF034.jpg
261.783785999985	3.001277100062	decision	1.783482800005	right	F	FF013.jpg	FF014.jpg
265.333667200059	1.01670529996045	win	NaN	n/a	n/a	FF013.jpg	FF014.jpg
270.217065199977	3.0020148998592	decision	2.03358040004969	left	M	MF001.jpg	MF002.jpg
273.767205199925	1.01650590007193	win	NaN	n/a	n/a	MF001.jpg	MF002.jpg
276.550480399979	3.00168689992279	decision	2.03324800007977	left	F	FF003.jpg	FF004.jpg
280.10037339991	1.0001123000402	win	NaN	n/a	n/a	FF003.jpg	FF004.jpg
284.967230199836	3.00246040010825	decision	1.78296880004928	left	M	MF003.jpg	MF004.jpg
288.517288199859	1.01652850001119	win	NaN	n/a	n/a	MF003.jpg	MF004.jpg
295.50064079999	3.0018591999542	decision	1.78381079994142	left	F	FF025.jpg	FF026.jpg
299.050600499846	1.0000259000808	win	NaN	n/a	n/a	FF025.jpg	FF026.jpg
306.017391700065	3.00245319982059	decision	2.03299899981357	right	M	MF035.jpg	MF036.jpg
309.567392899888	1.0000863999594	win	NaN	n/a	n/a	MF035.jpg	MF036.jpg
312.334246000042	3.00111559987999	decision	2.03321569995023	right	F	FF011.jpg	FF012.jpg
315.88423249987	1.01650080014952	loss	NaN	n/a	n/a	FF011.jpg	FF012.jpg
318.667645700043	3.00029019988142	decision	1.78335609985515	left	M	MF021.jpg	MF022.jpg
322.217536699958	1.01680199988186	win	NaN	n/a	n/a	MF021.jpg	MF022.jpg
327.100970499916	3.00130890007131	decision	2.03305370011367	right	F	FF029.jpg	FF030.jpg
330.650901499903	1.00003220001236	loss	NaN	n/a	n/a	FF029.jpg	FF030.jpg
