onset	duration	trial_type	rt	resp	gender	image_left	image_right
0.615715199994156	3.00161410000874	decision	1.5337902000028407	left	D	DD017.jpg	DD018.jpg
4.16590979999455	1.01662249999936	loss	n/a	n/a	n/a	DD017.jpg	DD018.jpg
11.132566500004	3.00119579999591	decision	1.2822436999995261	right	D	DD035.jpg	DD036.jpg
14.6824745000049	1.01661120000063	win	n/a	n/a	n/a	DD035.jpg	DD036.jpg
21.6324992000009	3.00162749999436	decision	1.5324746999976924	right	D	DD021.jpg	DD022.jpg
25.182387599998	1.01668600000266	loss	n/a	n/a	n/a	DD021.jpg	DD022.jpg
32.1156795999996	3.00128189999668	decision	1.7830511999927694	left	S	SD025.jpg	SD026.jpg
35.6656025999982	1.00006619999476	loss	n/a	n/a	n/a	SD025.jpg	SD026.jpg
38.4000555999955	3.00161120000121	decision	1.5327088000049116	left	S	SD027.jpg	SD028.jpg
41.9489338999992	1.01664639999217	loss	n/a	n/a	n/a	SD027.jpg	SD028.jpg
44.6826982000057	3.0010445999942	decision	1.532051699992735	right	S	SD023.jpg	SD024.jpg
48.2323580999946	1.01682780000556	win	n/a	n/a	n/a	SD023.jpg	SD024.jpg
50.9824534999934	3.00081370001135	decision	1.7822817999986	right	D	DD037.jpg	DD038.jpg
54.5323270999943	1.00011310000264	win	n/a	n/a	n/a	DD037.jpg	DD038.jpg
59.3659641999984	3.00087950000307	decision	2.0321201000042493	right	S	SD011.jpg	SD012.jpg
62.9156418999919	1.0166731000063	loss	n/a	n/a	n/a	SD011.jpg	SD012.jpg
67.7489838000038	3.00073859999247	decision	1.782766399992397	left	D	DD009.jpg	DD010.jpg
71.2988431999984	1.00012440000137	win	n/a	n/a	n/a	DD009.jpg	DD010.jpg
74.0325075000001	3.00084009999409	decision	1.5341800000023795	left	D	DD027.jpg	DD028.jpg
77.5826464999991	1.00028769999335	win	n/a	n/a	n/a	DD027.jpg	DD028.jpg
82.4323677999928	3.00099290000799	decision	1.782419300012407	left	D	DD015.jpg	DD016.jpg
85.9823576999916	1.01647470000898	loss	n/a	n/a	n/a	DD015.jpg	DD016.jpg
92.9322514999949	3.00084829999832	decision	1.5333683000062592	right	S	SD029.jpg	SD030.jpg
96.4822818999965	1.00002500000119	loss	n/a	n/a	n/a	SD029.jpg	SD030.jpg
101.298853600005	3.0013864999928	decision	1.5328493999986676	left	S	SD015.jpg	SD016.jpg
104.848965500001	1.01660299999639	win	n/a	n/a	n/a	SD015.jpg	SD016.jpg
111.782384699996	3.00081660000433	decision	1.7822943000064697	left	S	SD007.jpg	SD008.jpg
115.332243900004	1.0165616000013	win	n/a	n/a	n/a	SD007.jpg	SD008.jpg
120.182046100002	3.00056559999939	decision	1.5330595999985235	left	S	SD017.jpg	SD018.jpg
123.732183700005	1.01649789999647	win	n/a	n/a	n/a	SD017.jpg	SD018.jpg
126.482179099999	3.00146040000254	decision	1.2834272000036435	right	D	DD033.jpg	DD034.jpg
130.032192700004	1.01650929999596	win	n/a	n/a	n/a	DD033.jpg	DD034.jpg
132.782216799998	3.0019248000026	decision	1.5335074000031454	right	D	DD007.jpg	DD008.jpg
136.332117600003	1.01670839999861	loss	n/a	n/a	n/a	DD007.jpg	DD008.jpg
139.065868999998	3.00167539999529	decision	1.5328009000077145	left	D	DD023.jpg	DD024.jpg
142.615436399996	1.01656580000417	loss	n/a	n/a	n/a	DD023.jpg	DD024.jpg
155.865499599997	3.00197359999584	decision	1.2837511999969138	right	S	SD009.jpg	SD010.jpg
159.415922899992	1.01624380001158	loss	n/a	n/a	n/a	SD009.jpg	SD010.jpg
164.248769500002	3.00185600000259	decision	1.2834619999921415	left	D	DD001.jpg	DD002.jpg
167.798624999996	1.00000929999806	win	n/a	n/a	n/a	DD001.jpg	DD002.jpg
170.548707199996	3.00185070000589	decision	1.2837662000092678	left	S	SD019.jpg	SD020.jpg
174.098606400003	1.00001329999941	loss	n/a	n/a	n/a	SD019.jpg	SD020.jpg
181.032108700005	3.0010168000008	decision	1.282395699992776	left	D	DD031.jpg	DD032.jpg
184.581951400003	1.00005740000051	loss	n/a	n/a	n/a	DD031.jpg	DD032.jpg
189.398657500002	3.00112220000301	decision	1.2835070000000997	right	S	SD005.jpg	SD006.jpg
192.948547799999	1.00004480000644	win	n/a	n/a	n/a	SD005.jpg	SD006.jpg
195.698631899999	3.00077830000373	decision	1.7830014999926789	right	D	DD019.jpg	DD020.jpg
199.248552100005	1.00017389999994	win	n/a	n/a	n/a	DD019.jpg	DD020.jpg
206.165344699999	3.00227989999985	decision	1.5328563999937614	right	S	SD013.jpg	SD014.jpg
209.715236499993	1.00003210001159	loss	n/a	n/a	n/a	SD013.jpg	SD014.jpg
216.648568299992	3.00098570001137	decision	1.283160000006319	left	S	SD031.jpg	SD032.jpg
220.198952499995	1.01659389999986	loss	n/a	n/a	n/a	SD031.jpg	SD032.jpg
225.048704100001	3.03626189999341	decision-missed	n/a	n/a	D	DD039.jpg	DD040.jpg
228.631940199994	1.01655359999859	loss	n/a	n/a	n/a	DD039.jpg	DD040.jpg
231.381848799996	3.00144259999797	decision	1.0328890999953728	right	D	DD005.jpg	DD006.jpg
234.931735999999	1.00010839999595	loss	n/a	n/a	n/a	DD005.jpg	DD006.jpg
241.865536400001	3.00046250000014	decision	1.5326314999983879	left	S	SD037.jpg	SD038.jpg
245.4150926	1.00007919999189	loss	n/a	n/a	n/a	SD037.jpg	SD038.jpg
248.148615300001	3.00089120000484	decision	1.5330496999958996	right	S	SD039.jpg	SD040.jpg
251.698397400003	1.00036489999911	win	n/a	n/a	n/a	SD039.jpg	SD040.jpg
254.431875099996	3.00148200000694	decision	1.2835026000102516	left	S	SD033.jpg	SD034.jpg
257.981732899992	1.00013130001025	loss	n/a	n/a	n/a	SD033.jpg	SD034.jpg
260.715894499997	3.00180080000428	decision	1.7826483999961056	left	D	DD013.jpg	DD014.jpg
264.265044300002	1.00006209999265	win	n/a	n/a	n/a	DD013.jpg	DD014.jpg
269.081771700003	3.00148859999899	decision	1.7828718999953708	left	S	SD001.jpg	SD002.jpg
272.631701899998	1.01672400000098	win	n/a	n/a	n/a	SD001.jpg	SD002.jpg
275.381768399995	3.00182720000157	decision	1.7824434000067413	left	D	DD003.jpg	DD004.jpg
278.931669900005	1.00005170000077	win	n/a	n/a	n/a	DD003.jpg	DD004.jpg
283.748580200001	3.00112420000369	decision	1.532541599997785	right	S	SD003.jpg	SD004.jpg
287.298421400003	1.0167414000025	win	n/a	n/a	n/a	SD003.jpg	SD004.jpg
294.231681199992	3.00164240000595	decision	2.0338825000071665	right	D	DD025.jpg	DD026.jpg
297.781683199995	1.01659320000908	win	n/a	n/a	n/a	DD025.jpg	DD026.jpg
304.731658599994	3.00146720001067	decision	1.7825120000052266	left	S	SD035.jpg	SD036.jpg
308.281467099994	1.00010099999781	win	n/a	n/a	n/a	SD035.jpg	SD036.jpg
311.0150459	3.00141209999856	decision	1.7826652999938233	left	D	DD011.jpg	DD012.jpg
314.564924799997	1.0165929000068	loss	n/a	n/a	n/a	DD011.jpg	DD012.jpg
317.315069100005	3.00085309999122	decision	1.2834118999890052	left	S	SD021.jpg	SD022.jpg
320.865028700005	1.01627349999035	win	n/a	n/a	n/a	SD021.jpg	SD022.jpg
325.714986199993	3.00157630001195	decision	1.5332573000050616	right	D	DD029.jpg	DD030.jpg
329.265062000006	1.00001399999019	loss	n/a	n/a	n/a	DD029.jpg	DD030.jpg
