onset	duration	trial_type	rt	resp	gender	image_left	image_right
0.617050800006837	3.00222730002133	decision	1.783192400005646	right	D	DD017.jpg	DD018.jpg
4.16683050000574	1.01660979998996	loss	n/a	n/a	n/a	DD017.jpg	DD018.jpg
11.1335214999854	3.00071039999602	decision	2.2836976000107825	right	D	DD035.jpg	DD036.jpg
14.6834666000213	1.00006429996574	win	n/a	n/a	n/a	DD035.jpg	DD036.jpg
21.61708549998	3.00095800001873	decision	2.2847477000323124	right	D	DD021.jpg	DD022.jpg
25.1669331000303	1.00021899997955	loss	n/a	n/a	n/a	DD021.jpg	DD022.jpg
32.1004413000192	3.00100839999504	decision	2.034025200002361	right	S	SD025.jpg	SD026.jpg
35.6504769999883	1.01645870000357	loss	n/a	n/a	n/a	SD025.jpg	SD026.jpg
38.4006410000147	3.00081559998216	decision	1.7838218999677338	left	S	SD027.jpg	SD028.jpg
41.9506327999989	1.01650209998479	loss	n/a	n/a	n/a	SD027.jpg	SD028.jpg
44.7004670000169	3.0000030999654	decision	2.5340126999653876	left	S	SD023.jpg	SD024.jpg
48.2504253999796	1.00018610002007	win	n/a	n/a	n/a	SD023.jpg	SD024.jpg
50.9837727000122	3.00137969997013	decision	2.033436800003983	right	D	DD037.jpg	DD038.jpg
54.5339558999985	1.01661890000105	win	n/a	n/a	n/a	DD037.jpg	DD038.jpg
59.3841221000184	3.00065760000143	decision	2.533638799970504	left	S	SD011.jpg	SD012.jpg
62.9339701000135	1.00001810002141	loss	n/a	n/a	n/a	SD011.jpg	SD012.jpg
67.7674998000148	3.00029300001916	decision	2.5322862999746576	left	D	DD009.jpg	DD010.jpg
71.3173885000288	1.00003459997242	win	n/a	n/a	n/a	DD009.jpg	DD010.jpg
74.0341964000254	3.00076639995677	decision	2.03278309997404	left	D	DD027.jpg	DD028.jpg
77.5841349000111	1.01669309998397	win	n/a	n/a	n/a	DD027.jpg	DD028.jpg
82.4511315000127	3.000678899989	decision	1.5330250000115484	right	D	DD015.jpg	DD016.jpg
86.0008863999974	1.00001080002403	loss	n/a	n/a	n/a	DD015.jpg	DD016.jpg
92.9343173999805	3.00060610001674	decision	2.549616500036791	left	S	SD029.jpg	SD030.jpg
96.4842728999793	1.00005780003266	loss	n/a	n/a	n/a	SD029.jpg	SD030.jpg
101.318221500027	3.00128389999736	decision	1.7817019000067376	left	S	SD015.jpg	SD016.jpg
104.867631400004	1.00004160002572	win	n/a	n/a	n/a	SD015.jpg	SD016.jpg
111.801262599998	3.000762199983	decision	2.0337343999999575	right	S	SD007.jpg	SD008.jpg
115.35122740001	1.01647069997853	win	n/a	n/a	n/a	SD007.jpg	SD008.jpg
120.201411199989	3.00115940003889	decision	1.7851926000439562	right	S	SD017.jpg	SD018.jpg
123.751242800034	1.00004469999112	win	n/a	n/a	n/a	SD017.jpg	SD018.jpg
126.484695699997	3.00096949998988	decision	2.298962400003802	left	D	DD033.jpg	DD034.jpg
130.034573099983	1.00014380004723	win	n/a	n/a	n/a	DD033.jpg	DD034.jpg
132.76815020002	3.00113379996037	decision	2.03237299999455	right	D	DD007.jpg	DD008.jpg
136.318046300032	1.01673739997204	loss	n/a	n/a	n/a	DD007.jpg	DD008.jpg
139.068180600007	3.00051079998957	decision	1.7840654000174254	left	D	DD023.jpg	DD024.jpg
142.61818520003	1.01679699996021	loss	n/a	n/a	n/a	DD023.jpg	DD024.jpg
155.868335900013	3.00040499999886	decision	2.0333600000012666	left	S	SD009.jpg	SD010.jpg
159.418299700017	1.01674749999074	loss	n/a	n/a	n/a	SD009.jpg	SD010.jpg
164.268603899982	3.00009090005187	decision	2.7991393000120297	right	D	DD001.jpg	DD002.jpg
167.818406699982	1.0166567999986	win	n/a	n/a	n/a	DD001.jpg	DD002.jpg
170.601886800025	3.03761989995837	decision-missed	n/a	n/a	S	SD019.jpg	SD020.jpg
174.185202100023	1.01662089995807	loss	n/a	n/a	n/a	SD019.jpg	SD020.jpg
181.135455399984	3.00063360005151	decision	2.0326442000223324	right	D	DD031.jpg	DD032.jpg
184.685149300029	1.00011269998504	loss	n/a	n/a	n/a	DD031.jpg	DD032.jpg
189.518657699984	3.00099150004098	decision	2.3009878000011668	right	S	SD005.jpg	SD006.jpg
193.068700000003	1.01661160000367	win	n/a	n/a	n/a	SD005.jpg	SD006.jpg
195.835339199984	3.0013291000505	decision	2.2843023000168614	left	D	DD019.jpg	DD020.jpg
199.385440599988	1.01684210001258	win	n/a	n/a	n/a	DD019.jpg	DD020.jpg
206.335591099982	3.00155830004951	decision	2.0338060000212863	left	S	SD013.jpg	SD014.jpg
209.885516399983	1.00004220003029	loss	n/a	n/a	n/a	SD013.jpg	SD014.jpg
216.818922100007	3.00028320000274	decision	2.033274799992796	right	S	SD031.jpg	SD032.jpg
220.368919999979	1.01677200000267	loss	n/a	n/a	n/a	SD031.jpg	SD032.jpg
225.219051500026	3.00017989997286	decision	1.7831913999980316	right	D	DD039.jpg	DD040.jpg
228.769060700026	1.00005079997936	loss	n/a	n/a	n/a	DD039.jpg	DD040.jpg
231.519078299985	3.0405701000127	decision-missed	n/a	n/a	D	DD005.jpg	DD006.jpg
235.102598000027	1.01649740000721	loss	n/a	n/a	n/a	DD005.jpg	DD006.jpg
242.05253580003	3.00087259995053	decision	1.5337895999546163	left	S	SD037.jpg	SD038.jpg
245.602585699991	1.00002580002183	loss	n/a	n/a	n/a	SD037.jpg	SD038.jpg
248.335920299985	3.00046430004295	decision	1.7834425000473857	left	S	SD039.jpg	SD040.jpg
251.885900499998	1.00003470003139	win	n/a	n/a	n/a	SD039.jpg	SD040.jpg
254.619316300028	3.0012693000026	decision	1.5332105999696068	right	S	SD033.jpg	SD034.jpg
258.16938159999	1.00017700000899	loss	n/a	n/a	n/a	SD033.jpg	SD034.jpg
260.902717599995	3.00046010001097	decision	1.5330448999884538	right	D	DD013.jpg	DD014.jpg
264.452879899996	1.01651490002405	win	n/a	n/a	n/a	DD013.jpg	DD014.jpg
269.302892800013	3.00068280001869	decision	1.533599000016693	left	S	SD001.jpg	SD002.jpg
272.852798100037	1.01678989996435	win	n/a	n/a	n/a	SD001.jpg	SD002.jpg
275.602910200018	3.00071890000254	decision	1.532708399987314	right	D	DD003.jpg	DD004.jpg
279.152847799996	1.0166524000233	win	n/a	n/a	n/a	DD003.jpg	DD004.jpg
284.003064799996	3.00151209998876	decision	2.032519600004889	right	S	SD003.jpg	SD004.jpg
287.552926000033	1.00000739999814	win	n/a	n/a	n/a	SD003.jpg	SD004.jpg
294.486551099981	3.00071170000592	decision	2.0326440000208095	right	D	DD025.jpg	DD026.jpg
298.036399000033	1.00006130000111	win	n/a	n/a	n/a	DD025.jpg	DD026.jpg
304.969945700024	3.00113059999421	decision	2.0341437999741174	right	S	SD035.jpg	SD036.jpg
308.519773899985	1.00003250001464	win	n/a	n/a	n/a	SD035.jpg	SD036.jpg
311.253317099996	3.00082270003622	decision	2.534796699997969	right	D	DD011.jpg	DD012.jpg
314.803149399988	1.00004600000102	loss	n/a	n/a	n/a	DD011.jpg	DD012.jpg
317.536729399988	3.00083420000738	decision	1.5328245999990031	left	S	SD021.jpg	SD022.jpg
321.086569699983	1.00006490002852	win	n/a	n/a	n/a	SD021.jpg	SD022.jpg
325.920110400009	3.00061779998941	decision	2.033141100022476	right	D	DD029.jpg	DD030.jpg
329.470209899999	1.01648920000298	loss	n/a	n/a	n/a	DD029.jpg	DD030.jpg
