onset	duration	trial_type	rt	resp	gender	image_left	image_right
0.651091500000803	3.0019687999993	decision	1.5329673999995066	right	M	MF001.jpg	MF002.jpg
4.20091380000031	1.01666190000014	win	n/a	n/a	n/a	MF001.jpg	MF002.jpg
11.1842602000006	3.0016727000002	decision	2.032180299999709	left	M	MF003.jpg	MF004.jpg
14.7342047000002	1.01657750000049	loss	n/a	n/a	n/a	MF003.jpg	MF004.jpg
17.5175668000002	3.00161519999983	decision	2.282664299999851	right	M	MF005.jpg	MF006.jpg
21.0684330000004	1.01557419999972	win	n/a	n/a	n/a	MF005.jpg	MF006.jpg
23.8342000000002	3.00159650000023	decision	2.5502066999997623	right	F	FF001.jpg	FF002.jpg
27.3842099000003	1.01662459999989	win	n/a	n/a	n/a	FF001.jpg	FF002.jpg
32.2675288	3.00173860000086	decision	2.282885100000385	right	F	FF003.jpg	FF004.jpg
35.8173811000006	1.01667829999951	loss	n/a	n/a	n/a	FF003.jpg	FF004.jpg
42.8007639000007	3.00085599999966	decision	2.0329126999995424	right	M	MF007.jpg	MF008.jpg
46.3507151000003	1.01668750000044	loss	n/a	n/a	n/a	MF007.jpg	MF008.jpg
51.2341144000002	3.00133379999988	decision	2.2833699000002525	left	M	MF009.jpg	MF010.jpg
54.7840719000005	1.01656500000081	win	n/a	n/a	n/a	MF009.jpg	MF010.jpg
59.6675590000013	3.00056479999876	decision	2.8000621999999566	right	F	FF005.jpg	FF006.jpg
63.2171893000013	1.00008029999844	loss	n/a	n/a	n/a	FF005.jpg	FF006.jpg
65.9840670000012	3.00164330000007	decision	2.033525399998325	left	F	FF007.jpg	FF008.jpg
69.5339230000009	1.00008059999891	win	n/a	n/a	n/a	FF007.jpg	FF008.jpg
72.3006139000008	3.00092500000028	decision	2.533132399999886	right	F	FF009.jpg	FF010.jpg
75.8505598000011	1.00005339999916	win	n/a	n/a	n/a	FF009.jpg	FF010.jpg
78.6173830999996	3.00205750000168	decision	2.0339374000013777	right	F	FF011.jpg	FF012.jpg
82.167081900001	1.00022549999994	loss	n/a	n/a	n/a	FF011.jpg	FF012.jpg
87.0340293000008	3.00207129999944	decision	2.53353529999913	right	M	MF011.jpg	MF012.jpg
90.5839133000009	1.01657410000007	loss	n/a	n/a	n/a	MF011.jpg	MF012.jpg
93.3505588000007	3.0006085999994	decision	2.283054199999242	left	M	MF013.jpg	MF014.jpg
96.9005259000005	1.01668980000068	win	n/a	n/a	n/a	MF013.jpg	MF014.jpg
103.8838801	3.00102330000118	decision	2.2832617000003665	left	M	MF015.jpg	MF016.jpg
107.433896300001	1.01655439999922	win	n/a	n/a	n/a	MF015.jpg	MF016.jpg
110.2005594	3.0020872999994	decision	2.799600800000917	right	F	FF013.jpg	FF014.jpg
113.750494600001	1.01659800000016	win	n/a	n/a	n/a	FF013.jpg	FF014.jpg
120.734018700001	3.00104869999996	decision	2.7842545000003156	right	M	MF017.jpg	MF018.jpg
124.2838262	1.01661989999957	win	n/a	n/a	n/a	MF017.jpg	MF018.jpg
129.167185600001	3.00098969999999	decision	2.282152199999473	left	F	FF015.jpg	FF016.jpg
132.7170687	1.01667470000029	win	n/a	n/a	n/a	FF015.jpg	FF016.jpg
137.600423	3.00100060000113	decision	2.033091500001319	right	M	MF019.jpg	MF020.jpg
141.1506451	1.00051899999926	win	n/a	n/a	n/a	MF019.jpg	MF020.jpg
146.0171419	3.00158360000023	decision	2.2835317000008217	left	F	FF017.jpg	FF018.jpg
149.566977	1.00003090000064	win	n/a	n/a	n/a	FF017.jpg	FF018.jpg
162.833682800001	3.00131709999914	decision	2.284008900000117	left	M	MF021.jpg	MF022.jpg
166.383658800001	1.01651719999973	loss	n/a	n/a	n/a	MF021.jpg	MF022.jpg
173.3670088	3.00057460000062	decision	2.8008260000005976	right	M	MF023.jpg	MF024.jpg
176.9168653	1.00005420000161	win	n/a	n/a	n/a	MF023.jpg	MF024.jpg
183.883603800001	3.00220730000001	decision	2.5338073000002623	right	M	MF025.jpg	MF026.jpg
187.433500200001	1.01667950000046	loss	n/a	n/a	n/a	MF025.jpg	MF026.jpg
192.3168324	3.00175870000021	decision	1.7829215000001568	right	M	MF027.jpg	MF028.jpg
195.8668423	1.01666699999987	loss	n/a	n/a	n/a	MF027.jpg	MF028.jpg
198.650373500001	3.03879039999993	decision-missed	n/a	n/a	F	FF019.jpg	FF020.jpg
202.2337525	1.00047459999951	loss	n/a	n/a	n/a	FF019.jpg	FF020.jpg
205.0002499	3.00049410000065	decision	1.7830245000004652	left	F	FF021.jpg	FF022.jpg
208.5501196	1.01663600000029	win	n/a	n/a	n/a	FF021.jpg	FF022.jpg
215.5334432	3.00167940000028	decision	2.283905100000993	left	M	MF029.jpg	MF030.jpg
219.083475900001	1.0166164000002	loss	n/a	n/a	n/a	MF029.jpg	MF030.jpg
226.0668501	3.05041400000118	decision	3.0498636000011174	right	M	MF031.jpg	MF032.jpg
229.6666929	1.00002529999983	win	n/a	n/a	n/a	MF031.jpg	MF032.jpg
234.533377400001	3.00192909999896	decision	2.2827072000000044	left	F	FF023.jpg	FF024.jpg
238.0832572	1.01667269999962	loss	n/a	n/a	n/a	FF023.jpg	FF024.jpg
240.8500841	3.00055149999935	decision	2.8006884999995236	right	F	FF025.jpg	FF026.jpg
244.3998703	1.00013020000006	win	n/a	n/a	n/a	FF025.jpg	FF026.jpg
249.266802600001	3.00185259999853	decision	2.7994153999989067	right	F	FF027.jpg	FF028.jpg
252.8167049	1.0165577000007	loss	n/a	n/a	n/a	FF027.jpg	FF028.jpg
255.6000153	3.00077729999975	decision	2.549084300000686	left	M	MF033.jpg	MF034.jpg
259.1499164	1.01668630000131	loss	n/a	n/a	n/a	MF033.jpg	MF034.jpg
261.933284500001	3.00210759999936	decision	1.7837103999991086	right	M	MF035.jpg	MF036.jpg
265.4833502	1.01656970000113	loss	n/a	n/a	n/a	MF035.jpg	MF036.jpg
268.266720900001	3.00103549999949	decision	2.2853924999999435	right	M	MF037.jpg	MF038.jpg
271.816491900001	1.00004139999874	win	n/a	n/a	n/a	MF037.jpg	MF038.jpg
278.783220700001	3.00104209999881	decision	2.2825689999990573	left	F	FF029.jpg	FF030.jpg
282.333109900001	1.0000641000006	loss	n/a	n/a	n/a	FF029.jpg	FF030.jpg
285.0832157	3.00181940000039	decision	2.5339222000002337	right	F	FF031.jpg	FF032.jpg
288.6330899	1.01672890000009	loss	n/a	n/a	n/a	FF031.jpg	FF032.jpg
293.499908900001	3.05086969999866	decision	3.0502910999985033	right	F	FF033.jpg	FF034.jpg
297.099788700001	1.01660099999935	win	n/a	n/a	n/a	FF033.jpg	FF034.jpg
304.0837061	3.00185740000052	decision	2.282911800000875	right	M	MF039.jpg	MF040.jpg
307.633038600001	1.01672049999979	loss	n/a	n/a	n/a	MF039.jpg	MF040.jpg
314.616422900001	3.00168909999957	decision	1.7824555000006512	left	F	FF035.jpg	FF036.jpg
318.166388	1.01656670000011	win	n/a	n/a	n/a	FF035.jpg	FF036.jpg
320.949754200001	3.05016699999942	decision	3.049593300000197	right	F	FF037.jpg	FF038.jpg
324.549660300001	1.0000129	loss	n/a	n/a	n/a	FF037.jpg	FF038.jpg
327.316330400001	3.00197870000011	decision	2.549665599999571	left	F	FF039.jpg	FF040.jpg
330.866319300001	1.01664449999953	loss	n/a	n/a	n/a	FF039.jpg	FF040.jpg
