onset	duration	trial_type	rt	resp	gender	image_left	image_right
0.645405400020536	3.00178729998879	decision	2.03294299996924	right	M	MF001.jpg	MF002.jpg
4.19539589999476	1.01664640003582	win	NaN	n/a	n/a	MF001.jpg	MF002.jpg
11.1785758000333	3.00133259996073	decision	1.78249449998839	left	M	MF003.jpg	MF004.jpg
14.728599700029	1.00022539997008	loss	NaN	n/a	n/a	MF003.jpg	MF004.jpg
17.4955768000218	3.00177609996172	decision	1.78281080001034	left	M	MF005.jpg	MF006.jpg
21.0455732999835	1.01673329999903	win	NaN	n/a	n/a	MF005.jpg	MF006.jpg
23.8121736000176	3.00156389997574	decision	1.78261609998299	right	F	FF001.jpg	FF002.jpg
27.3620195999974	1.00033310003346	win	NaN	n/a	n/a	FF001.jpg	FF002.jpg
32.2124602000113	3.00192820001394	decision	2.28296450001653	right	F	FF003.jpg	FF004.jpg
35.7626795999822	1.00052920001326	loss	NaN	n/a	n/a	FF003.jpg	FF004.jpg
42.7289313999936	3.00134550000075	decision	2.03263850003714	left	M	MF007.jpg	MF008.jpg
46.2787478999817	1.00044410000555	loss	NaN	n/a	n/a	MF007.jpg	MF008.jpg
51.1290369000053	3.00137289997656	decision	1.78254799998831	right	M	MF009.jpg	MF010.jpg
54.6790289999917	1.00013970001601	win	NaN	n/a	n/a	MF009.jpg	MF010.jpg
59.5293515999801	3.00052840000717	decision	2.03312259999802	left	F	FF005.jpg	FF006.jpg
63.0793718000059	1.00009679998038	loss	NaN	n/a	n/a	FF005.jpg	FF006.jpg
65.829445499985	3.00022000004537	decision	1.783076599997	right	F	FF007.jpg	FF008.jpg
69.3792213000124	1.0168603999773	win	NaN	n/a	n/a	FF007.jpg	FF008.jpg
72.1456921999925	3.00095810001949	decision	1.78338440001244	left	F	FF009.jpg	FF010.jpg
75.6961861000163	1.00045170000521	win	NaN	n/a	n/a	FF009.jpg	FF010.jpg
78.4462278999854	3.00157670001499	decision	2.28395760001149	right	F	FF011.jpg	FF012.jpg
81.9961211000336	1.0000990999979	loss	NaN	n/a	n/a	FF011.jpg	FF012.jpg
86.8461976000108	3.00136380002368	decision	2.28295909997541	right	M	MF011.jpg	MF012.jpg
90.3961413999787	1.00006460002623	loss	NaN	n/a	n/a	MF011.jpg	MF012.jpg
93.1463731999975	3.00130659999559	decision	1.78337730001658	right	M	MF013.jpg	MF014.jpg
96.6962181000272	1.00023549998878	win	NaN	n/a	n/a	MF013.jpg	MF014.jpg
103.646489900013	3.00196809996851	decision	2.032406000013	right	M	MF015.jpg	MF016.jpg
107.196484600019	1.01621440000599	win	NaN	n/a	n/a	MF015.jpg	MF016.jpg
109.963021999982	3.00061520002782	decision	2.03314760001376	left	F	FF013.jpg	FF014.jpg
113.513192999992	1.01645639998605	win	NaN	n/a	n/a	FF013.jpg	FF014.jpg
120.480012000015	3.00011710001854	decision	1.53303799999412	right	M	MF017.jpg	MF018.jpg
124.029964999994	1.01628949999576	win	NaN	n/a	n/a	MF017.jpg	MF018.jpg
128.896390800015	3.00112229998922	decision	2.03280819999054	left	F	FF015.jpg	FF016.jpg
132.446763199987	1.01662650000071	win	NaN	n/a	n/a	FF015.jpg	FF016.jpg
137.313778200012	3.00027610000689	decision	1.53216279996559	right	M	MF019.jpg	MF020.jpg
140.863517199992	1.0166211000178	win	NaN	n/a	n/a	MF019.jpg	MF020.jpg
145.730061099981	3.00135770003544	decision	2.03261550003663	right	F	FF017.jpg	FF018.jpg
149.280241600005	1.01638450002065	win	NaN	n/a	n/a	FF017.jpg	FF018.jpg
162.546960700012	3.00145209999755	decision	1.78319709998323	left	M	MF021.jpg	MF022.jpg
166.096977700014	1.01645170000847	loss	NaN	n/a	n/a	MF021.jpg	MF022.jpg
173.063550300023	3.00144630001159	decision	1.78350309998496	right	M	MF023.jpg	MF024.jpg
176.613819300022	1.0002330999705	win	NaN	n/a	n/a	MF023.jpg	MF024.jpg
183.564043599996	3.00065370002994	decision	2.28313629998593	left	M	MF025.jpg	MF026.jpg
187.113740800007	1.00009069999214	loss	NaN	n/a	n/a	MF025.jpg	MF026.jpg
191.963871699991	3.00190490001114	decision	2.53296370001044	left	M	MF027.jpg	MF028.jpg
195.513996199996	1.00002370000584	loss	NaN	n/a	n/a	MF027.jpg	MF028.jpg
198.264607699995	3.00176439998904	decision	2.53297200001543	left	F	FF019.jpg	FF020.jpg
201.813917200023	1.0165237999754	loss	NaN	n/a	n/a	FF019.jpg	FF020.jpg
204.580657400016	3.00170969997998	decision	2.03238899999997	right	F	FF021.jpg	FF022.jpg
208.130630799977	1.01659010001458	win	NaN	n/a	n/a	FF021.jpg	FF022.jpg
215.097342399997	3.00146250001853	decision	1.78331369999796	right	M	MF029.jpg	MF030.jpg
218.64739649999	1.00017840001965	loss	NaN	n/a	n/a	MF029.jpg	MF030.jpg
225.59789059998	3.00118090002798	decision	1.53215830004774	left	M	MF031.jpg	MF032.jpg
229.147770399984	1.01674859999912	win	NaN	n/a	n/a	MF031.jpg	MF032.jpg
234.014274500019	3.00106039998354	decision	1.53267509996658	right	F	FF023.jpg	FF024.jpg
237.564330700028	1.00019859999884	loss	NaN	n/a	n/a	FF023.jpg	FF024.jpg
240.330999099999	3.00123880000319	decision	1.78354450000916	right	F	FF025.jpg	FF026.jpg
243.880990000034	1.01672099996358	win	NaN	n/a	n/a	FF025.jpg	FF026.jpg
248.764366000018	3.00159459997667	decision	1.53277429996524	left	F	FF027.jpg	FF028.jpg
252.314684399986	1.01643590000458	loss	NaN	n/a	n/a	FF027.jpg	FF028.jpg
255.098042100028	3.00052999996115	decision	1.78319789998932	left	M	MF033.jpg	MF034.jpg
258.648249400023	1.01633319997927	loss	NaN	n/a	n/a	MF033.jpg	MF034.jpg
261.431451399985	3.00118650001241	decision	1.78265250002733	right	M	MF035.jpg	MF036.jpg
264.981285799993	1.01654779998353	loss	NaN	n/a	n/a	MF035.jpg	MF036.jpg
267.764729999995	3.00116869999329	decision	2.03369050001493	right	M	MF037.jpg	MF038.jpg
271.314546499983	1.00005010003224	win	NaN	n/a	n/a	MF037.jpg	MF038.jpg
278.281511000008	3.00108149996959	decision	2.03250450000633	left	F	FF029.jpg	FF030.jpg
281.831536200014	1.01648579997709	loss	NaN	n/a	n/a	FF029.jpg	FF030.jpg
284.598354100017	3.00115729996469	decision	1.53272740001557	right	F	FF031.jpg	FF032.jpg
288.148369800008	1.01627949997783	loss	NaN	n/a	n/a	FF031.jpg	FF032.jpg
293.014807300002	3.00094499997795	decision	2.03337580000516	right	F	FF033.jpg	FF034.jpg
296.564704300021	1.00023499998497	win	NaN	n/a	n/a	FF033.jpg	FF034.jpg
303.53216360003	3.00059549999423	decision	1.53248860000167	left	M	MF039.jpg	MF040.jpg
307.081577899982	1.00030370004242	loss	NaN	n/a	n/a	MF039.jpg	MF040.jpg
314.048398100014	3.00143389997538	decision	1.53277900000103	right	F	FF035.jpg	FF036.jpg
317.598536800011	1.0001259999699	win	NaN	n/a	n/a	FF035.jpg	FF036.jpg
320.348649899999	3.00127230002545	decision	1.78528150002239	right	F	FF037.jpg	FF038.jpg
323.89836739999	1.01660580001771	loss	NaN	n/a	n/a	FF037.jpg	FF038.jpg
326.665447700012	3.00225389999105	decision	1.78277140000137	left	F	FF039.jpg	FF040.jpg
330.215225499996	1.01646650000475	loss	NaN	n/a	n/a	FF039.jpg	FF040.jpg
