onset	duration	trial_type	rt	resp	gender	image_left	image_right
0.605715199984843	3.00098080001771	decision	1.78247070001089	left	D	DD017.jpg	DD018.jpg
4.15616059998865	1.01621959998738	loss	NaN	n/a	n/a	DD017.jpg	DD018.jpg
11.1222988999798	3.00134390001767	decision	1.53231560002314	right	D	DD035.jpg	DD036.jpg
14.6725208999997	1.01633499999298	win	NaN	n/a	n/a	DD035.jpg	DD036.jpg
21.6222246999969	3.0005472000048	decision	2.03311059999396	left	D	DD021.jpg	DD022.jpg
25.1721348999999	1.01677389998804	loss	NaN	n/a	n/a	DD021.jpg	DD022.jpg
32.1056709999975	3.00189449999016	decision	1.78293230000418	left	S	SD025.jpg	SD026.jpg
35.6556984999916	1.01647339999909	loss	NaN	n/a	n/a	SD025.jpg	SD026.jpg
38.405511399993	3.00133729999652	decision	1.7831549999828	left	S	SD027.jpg	SD028.jpg
41.9555487000034	1.01669869999751	loss	NaN	n/a	n/a	SD027.jpg	SD028.jpg
44.6900407999929	3.00160200000391	decision	2.281579100003	left	S	SD023.jpg	SD024.jpg
48.2388229999924	1.00005649999366	win	NaN	n/a	n/a	SD023.jpg	SD024.jpg
50.9722164999985	3.00118809999549	decision	2.28267729998333	right	D	DD037.jpg	DD038.jpg
54.5222090999887	1.01659129999462	win	NaN	n/a	n/a	DD037.jpg	DD038.jpg
59.372489899979	3.00198380000074	decision	2.03276170001482	right	S	SD011.jpg	SD012.jpg
62.9220281000016	1.00027609997778	loss	NaN	n/a	n/a	SD011.jpg	SD012.jpg
67.7554660000023	3.0015507999924	decision	1.53289579998818	left	D	DD009.jpg	DD010.jpg
71.3054079999856	1.01670269999886	win	NaN	n/a	n/a	DD009.jpg	DD010.jpg
74.0390999999945	3.00161350000417	decision	1.28225610000663	right	D	DD027.jpg	DD028.jpg
77.5887509000022	1.01660959998844	win	NaN	n/a	n/a	DD027.jpg	DD028.jpg
82.4554496999772	3.00078570001642	decision	2.2840903000033	right	D	DD015.jpg	DD016.jpg
86.0054851000023	1.00010279999697	loss	NaN	n/a	n/a	DD015.jpg	DD016.jpg
92.9388163999829	3.00149059999967	decision	2.28235640001367	left	S	SD029.jpg	SD030.jpg
96.4887108999828	1.00024200000917	loss	NaN	n/a	n/a	SD029.jpg	SD030.jpg
101.305350499984	3.00108590000309	decision	2.28332079999382	left	S	SD015.jpg	SD016.jpg
104.856265199982	1.00010960001964	win	NaN	n/a	n/a	SD015.jpg	SD016.jpg
111.772307899984	3.00165260001086	decision	2.53415720001794	right	S	SD007.jpg	SD008.jpg
115.321873599984	1.00004859999171	win	NaN	n/a	n/a	SD007.jpg	SD008.jpg
120.155274899997	3.00045589997899	decision	2.53304379998008	left	S	SD017.jpg	SD018.jpg
123.705404299981	1.01714599999832	win	NaN	n/a	n/a	SD017.jpg	SD018.jpg
126.455310399993	3.2997303000011	decision	3.29918559998623	right	D	DD033.jpg	DD034.jpg
130.305109399982	1.00008359999629	win	NaN	n/a	n/a	DD033.jpg	DD034.jpg
133.038452499983	3.05064550001407	decision	3.05009760000394	right	D	DD007.jpg	DD008.jpg
136.638439499977	1.00001200000406	loss	NaN	n/a	n/a	DD007.jpg	DD008.jpg
139.355507599976	3.00168830002076	decision	2.28262790001463	left	D	DD023.jpg	DD024.jpg
142.905047099979	1.00037330001942	loss	NaN	n/a	n/a	DD023.jpg	DD024.jpg
156.138419399998	3.00175539997872	decision	1.78286829998251	right	S	SD009.jpg	SD010.jpg
159.688383200002	1.0165263999952	loss	NaN	n/a	n/a	SD009.jpg	SD010.jpg
164.521716399991	3.001700599998	decision	2.28254590000142	left	D	DD001.jpg	DD002.jpg
168.071997599996	1.01626289999695	win	NaN	n/a	n/a	DD001.jpg	DD002.jpg
170.838378399989	3.00090539999655	decision	2.03243769999244	left	S	SD019.jpg	SD020.jpg
174.388229299977	1.00026100000832	loss	NaN	n/a	n/a	SD019.jpg	SD020.jpg
181.321697899984	3.00071920000482	decision	2.03321680001682	right	D	DD031.jpg	DD032.jpg
184.871752499981	1.00052260002121	loss	NaN	n/a	n/a	DD031.jpg	DD032.jpg
189.688557899994	3.00097289998666	decision	2.53235989998211	right	S	SD005.jpg	SD006.jpg
193.238379599992	1.01668539998354	win	NaN	n/a	n/a	SD005.jpg	SD006.jpg
196.00502739998	3.00097300001653	decision	1.78242679999676	left	D	DD019.jpg	DD020.jpg
199.554923399992	1.00007569999434	win	NaN	n/a	n/a	DD019.jpg	DD020.jpg
206.472461500001	3.00155570000061	decision	2.28184089998831	right	S	SD013.jpg	SD014.jpg
210.021477599978	1.00018460000865	loss	NaN	n/a	n/a	SD013.jpg	SD014.jpg
216.938243399985	3.00127360000624	decision	2.28260440001031	right	S	SD031.jpg	SD032.jpg
220.488208499999	1.0000907999929	loss	NaN	n/a	n/a	SD031.jpg	SD032.jpg
225.322187599988	3.00214470000356	decision	1.78178600000683	right	D	DD039.jpg	DD040.jpg
228.871469999984	1.0166581000085	loss	NaN	n/a	n/a	DD039.jpg	DD040.jpg
231.621460499999	3.00215149999713	decision	2.53399569998146	right	D	DD005.jpg	DD006.jpg
235.171490599983	1.01657239999622	loss	NaN	n/a	n/a	DD005.jpg	DD006.jpg
242.121456499997	3.00190740000107	decision	2.03378339999472	left	S	SD037.jpg	SD038.jpg
245.671682099986	1.00068130000727	loss	NaN	n/a	n/a	SD037.jpg	SD038.jpg
248.404678399995	3.00097510000342	decision	1.53248090000125	left	S	SD039.jpg	SD040.jpg
251.954797399987	1.01659330000984	win	NaN	n/a	n/a	SD039.jpg	SD040.jpg
254.688185699983	3.00176460001967	decision	1.53236070001731	right	S	SD033.jpg	SD034.jpg
258.238062499993	1.01661880000029	loss	NaN	n/a	n/a	SD033.jpg	SD034.jpg
260.988188699994	3.00063819999923	decision	1.78311769998982	right	D	DD013.jpg	DD014.jpg
264.537982199981	1.00031620002119	win	NaN	n/a	n/a	DD013.jpg	DD014.jpg
269.354650399997	3.00102890000562	decision	1.78250060000573	left	S	SD001.jpg	SD002.jpg
272.904598900001	1.00005049997708	win	NaN	n/a	n/a	SD001.jpg	SD002.jpg
275.638104699989	3.00135710000177	decision	2.79990980000002	right	D	DD003.jpg	DD004.jpg
279.188240599993	1.00000379999983	win	NaN	n/a	n/a	DD003.jpg	DD004.jpg
284.004970299982	3.00123160000658	decision	2.7996858000115	right	S	SD003.jpg	SD004.jpg
287.554529699992	1.00006970000686	win	NaN	n/a	n/a	SD003.jpg	SD004.jpg
294.471279899997	3.0013846999791	decision	2.03240659998846	left	D	DD025.jpg	DD026.jpg
298.021240599977	1.0000559000182	win	NaN	n/a	n/a	DD025.jpg	DD026.jpg
304.954841500003	3.00114849998499	decision	2.03232779999962	left	S	SD035.jpg	SD036.jpg
308.504794099979	1.01637379999738	win	NaN	n/a	n/a	SD035.jpg	SD036.jpg
311.254550099984	3.00104030000512	decision	2.53242000000319	left	D	DD011.jpg	DD012.jpg
314.804428999982	1.00010320000001	loss	NaN	n/a	n/a	DD011.jpg	DD012.jpg
317.537883399986	3.05067560001044	decision	3.05013489999692	left	S	SD021.jpg	SD022.jpg
321.137836999987	1.00003299998934	win	NaN	n/a	n/a	SD021.jpg	SD022.jpg
325.971270499984	3.00122450001072	decision	2.78570910001872	left	D	DD029.jpg	DD030.jpg
329.521243499999	1.01679329999024	loss	NaN	n/a	n/a	DD029.jpg	DD030.jpg
