onset	duration	trial_type	rt	resp	gender	image_left	image_right
0.615515599958599	3.00085760001093	decision	2.033034599968232	left	S	SD001.jpg	SD002.jpg
4.16555659996811	1.00001439999323	win	n/a	n/a	n/a	SD001.jpg	SD002.jpg
11.0990343999583	3.00202370004263	decision	1.2833746999967843	right	S	SD003.jpg	SD004.jpg
14.6489912000252	1.00029459991492	loss	n/a	n/a	n/a	SD003.jpg	SD004.jpg
17.3824095999589	3.00067290000152	decision	2.2841541999951005	left	S	SD005.jpg	SD006.jpg
20.9325991999358	1.00045960000716	win	n/a	n/a	n/a	SD005.jpg	SD006.jpg
23.6661228999728	3.00063030002639	decision	1.5332183999707922	right	D	DD001.jpg	DD002.jpg
27.2158106999705	1.01664769998752	win	n/a	n/a	n/a	DD001.jpg	DD002.jpg
32.0662417999702	3.00148740003351	decision	2.0327485000016168	right	D	DD003.jpg	DD004.jpg
35.616197599913	1.00009490002412	loss	n/a	n/a	n/a	DD003.jpg	DD004.jpg
42.5495105999289	3.0017283000052	decision	2.0328003000468016	left	S	SD007.jpg	SD008.jpg
46.0996216000058	1.00003389990889	loss	n/a	n/a	n/a	SD007.jpg	SD008.jpg
50.9497341000242	3.00102629989851	decision	2.5342709999531507	right	S	SD009.jpg	SD010.jpg
54.4996183000039	1.01645919994917	win	n/a	n/a	n/a	SD009.jpg	SD010.jpg
59.3661818000255	3.00159679993521	decision	1.7826220999704674	right	D	DD005.jpg	DD006.jpg
62.9167386000045	1.01636909996159	loss	n/a	n/a	n/a	DD005.jpg	DD006.jpg
65.6830013999715	3.0009705000557	decision	2.7993659999920055	left	D	DD007.jpg	DD008.jpg
69.2329173999606	1.00000250001904	win	n/a	n/a	n/a	DD007.jpg	DD008.jpg
71.9666197999613	3.00214280001819	decision	2.5324906000168994	left	D	DD009.jpg	DD010.jpg
75.5165934999241	1.01672180008609	win	n/a	n/a	n/a	DD009.jpg	DD010.jpg
78.2663771000225	3.00140439998358	decision	1.7838841999182478	left	D	DD011.jpg	DD012.jpg
81.8165426999331	1.00048600009177	loss	n/a	n/a	n/a	DD011.jpg	DD012.jpg
86.666710200021	3.05074649991002	decision	3.0502064999891445	right	S	SD011.jpg	SD012.jpg
90.2665064999601	1.01653580006678	loss	n/a	n/a	n/a	SD011.jpg	SD012.jpg
93.0168763999827	3.00183820002712	decision	2.5499361000256613	right	S	SD013.jpg	SD014.jpg
96.5668188999407	1.01647340005729	win	n/a	n/a	n/a	SD013.jpg	SD014.jpg
103.516684299917	3.0013045000378	decision	2.282541500055231	left	S	SD015.jpg	SD016.jpg
107.066796900006	1.00008109991904	win	n/a	n/a	n/a	SD015.jpg	SD016.jpg
109.816771099926	3.00152130005881	decision	2.2834800001000986	right	D	DD013.jpg	DD014.jpg
113.366757599986	1.01653559994884	win	n/a	n/a	n/a	DD013.jpg	DD014.jpg
120.31675769994	3.00156880007125	decision	2.799119899980724	left	S	SD017.jpg	SD018.jpg
123.867108799983	1.01640179997776	win	n/a	n/a	n/a	SD017.jpg	SD018.jpg
128.733880099957	3.03827909997199	decision-missed	n/a	n/a	D	DD015.jpg	DD016.jpg
132.316906999913	1.01668490003794	win	n/a	n/a	n/a	DD015.jpg	DD016.jpg
137.200530299917	3.00243970006704	decision	2.0328640000661835	right	S	SD019.jpg	SD020.jpg
140.75034109992	1.01667730009649	win	n/a	n/a	n/a	SD019.jpg	SD020.jpg
145.600437799934	3.00131540000439	decision	1.5324570999946445	left	D	DD017.jpg	DD018.jpg
149.150292099919	1.0000810000347	win	n/a	n/a	n/a	DD017.jpg	DD018.jpg
162.400628999923	3.0014693000121	decision	2.033727200003341	left	S	SD021.jpg	SD022.jpg
165.950866499916	1.01648010010831	loss	n/a	n/a	n/a	SD021.jpg	SD022.jpg
172.900956499972	3.00095869996585	decision	2.7993391000200063	right	S	SD023.jpg	SD024.jpg
176.450671999948	1.01667510007974	win	n/a	n/a	n/a	SD023.jpg	SD024.jpg
183.400844599935	3.00103290006518	decision	1.7830686999950558	right	S	SD025.jpg	SD026.jpg
186.951040099957	1.01669069996569	loss	n/a	n/a	n/a	SD025.jpg	SD026.jpg
191.817867900012	3.0019380999729	decision	2.031979599967599	left	S	SD027.jpg	SD028.jpg
195.367543199915	1.01660880004056	loss	n/a	n/a	n/a	SD027.jpg	SD028.jpg
198.151285699918	3.00081050000153	decision	2.282271800097078	right	D	DD019.jpg	DD020.jpg
201.701094400021	1.01677619991824	loss	n/a	n/a	n/a	DD019.jpg	DD020.jpg
204.451735900017	3.00203079998028	decision	2.032583099906333	left	D	DD021.jpg	DD022.jpg
208.001212799922	1.00002490007319	win	n/a	n/a	n/a	DD021.jpg	DD022.jpg
214.951312399935	3.00113980006427	decision	2.283613400068134	left	S	SD029.jpg	SD030.jpg
218.501093999948	1.01663029997144	loss	n/a	n/a	n/a	SD029.jpg	SD030.jpg
225.451224499964	3.00167689996306	decision	2.5340252000605687	left	S	SD031.jpg	SD032.jpg
229.001334199915	1.00013749999925	win	n/a	n/a	n/a	SD031.jpg	SD032.jpg
233.834738099948	3.00104440003633	decision	2.032453599967994	right	D	DD023.jpg	DD024.jpg
237.384573700023	1.00004600000102	loss	n/a	n/a	n/a	DD023.jpg	DD024.jpg
240.118335800013	3.00157959992066	decision	2.532867999980226	right	D	DD025.jpg	DD026.jpg
243.668186699972	1.01651500002481	win	n/a	n/a	n/a	DD025.jpg	DD026.jpg
248.518129099975	3.00223450001795	decision	2.7999598999740556	left	D	DD027.jpg	DD028.jpg
252.068215199979	1.01646089996211	loss	n/a	n/a	n/a	DD027.jpg	DD028.jpg
254.818506699987	3.00125790003221	decision	1.5322990999557078	left	S	SD033.jpg	SD034.jpg
258.368174399948	1.00000450003427	loss	n/a	n/a	n/a	SD033.jpg	SD034.jpg
261.118201399921	3.00162160000764	decision	1.7837159000337124	right	S	SD035.jpg	SD036.jpg
264.668237800011	1.01654420001432	loss	n/a	n/a	n/a	SD035.jpg	SD036.jpg
267.418314500013	3.00067649991252	decision	2.033002399955876	right	S	SD037.jpg	SD038.jpg
270.968648199923	1.01652510010172	win	n/a	n/a	n/a	SD037.jpg	SD038.jpg
277.918311499991	3.00139550003223	decision	2.2832573000341654	left	D	DD029.jpg	DD030.jpg
281.468397599994	1.01707709999755	loss	n/a	n/a	n/a	DD029.jpg	DD030.jpg
284.235320799984	3.00203840003815	decision	2.5497826000209898	left	D	DD031.jpg	DD032.jpg
287.785183299915	1.00008240004536	loss	n/a	n/a	n/a	DD031.jpg	DD032.jpg
292.635233399924	3.00142320001032	decision	1.7826518000802025	right	D	DD033.jpg	DD034.jpg
296.185640499927	1.01649180008098	win	n/a	n/a	n/a	DD033.jpg	DD034.jpg
303.151994899963	3.0011974000372	decision	1.7834321999689564	left	S	SD039.jpg	SD040.jpg
306.701811400009	1.00000090000685	loss	n/a	n/a	n/a	SD039.jpg	SD040.jpg
313.652106299996	3.00197230000049	decision	1.5338302999734879	right	D	DD035.jpg	DD036.jpg
317.202466599992	1.01655029994436	win	n/a	n/a	n/a	DD035.jpg	DD036.jpg
319.969132500002	3.00131079996936	decision	2.282435499946587	right	D	DD037.jpg	DD038.jpg
323.519050600007	1.01679429993965	loss	n/a	n/a	n/a	DD037.jpg	DD038.jpg
326.285619499977	3.0006216999609	decision	2.549024899955839	right	D	DD039.jpg	DD040.jpg
329.835445399978	1.00015059998259	loss	n/a	n/a	n/a	DD039.jpg	DD040.jpg
