onset	duration	trial_type	rt	resp	gender	image_left	image_right
0.609716999984812	3.0022041000193	decision	1.78304190002382	left	S	SD001.jpg	SD002.jpg
4.15956359996926	1.00014740001643	win	NaN	n/a	n/a	SD001.jpg	SD002.jpg
11.0931220999919	3.00078030000441	decision	1.03305730002467	right	S	SD003.jpg	SD004.jpg
14.6429292999674	1.00011820002692	loss	NaN	n/a	n/a	SD003.jpg	SD004.jpg
17.3602719000191	3.00160859996686	decision	1.03269639995415	left	S	SD005.jpg	SD006.jpg
20.9099261999945	1.01658649998717	win	NaN	n/a	n/a	SD005.jpg	SD006.jpg
23.6429322999902	3.30156739999074	decision	3.30096020002384	left	D	DD001.jpg	DD002.jpg
27.4928566999733	1.01650550001068	win	NaN	n/a	n/a	DD001.jpg	DD002.jpg
32.3266011999804	3.00069499999518	decision	1.78201500000432	right	D	DD003.jpg	DD004.jpg
35.8761872000177	1.0000211999868	loss	NaN	n/a	n/a	DD003.jpg	DD004.jpg
42.7930570999742	3.00088420003885	decision	2.53333110001404	left	S	SD007.jpg	SD008.jpg
46.3429356999695	1.00043529999675	loss	NaN	n/a	n/a	SD007.jpg	SD008.jpg
51.1765229000011	3.00075449998258	decision	2.5321438999963	right	S	SD009.jpg	SD010.jpg
54.7260759999626	1.00032220000867	win	NaN	n/a	n/a	SD009.jpg	SD010.jpg
59.5598539999919	3.00097639998421	decision	1.03306400001748	right	D	DD005.jpg	DD006.jpg
63.1094946999801	1.00004170002649	loss	NaN	n/a	n/a	DD005.jpg	DD006.jpg
65.8429361999733	3.00097819999792	decision	2.28302650002297	left	D	DD007.jpg	DD008.jpg
69.3926359000034	1.0002220000024	win	NaN	n/a	n/a	DD007.jpg	DD008.jpg
72.1098228999763	3.00202539999736	decision	1.78295870003058	left	D	DD009.jpg	DD010.jpg
75.6597265999881	1.0162920000148	win	NaN	n/a	n/a	DD009.jpg	DD010.jpg
78.3928834999679	3.00091450003674	decision	1.28355360002024	right	D	DD011.jpg	DD012.jpg
81.942673499987	1.01663070003269	loss	NaN	n/a	n/a	DD011.jpg	DD012.jpg
86.7927116999635	3.00101760000689	decision	2.28260299999965	left	S	SD011.jpg	SD012.jpg
90.3428316999925	1.01678619999439	loss	NaN	n/a	n/a	SD011.jpg	SD012.jpg
93.0762508999906	3.00222439999925	decision	1.2827897000243	right	S	SD013.jpg	SD014.jpg
96.6259313999908	1.01667669997551	win	NaN	n/a	n/a	SD013.jpg	SD014.jpg
103.559407899971	3.0014899999951	decision	1.28298220003489	left	S	SD015.jpg	SD016.jpg
107.109414800012	1.00052020000294	win	NaN	n/a	n/a	SD015.jpg	SD016.jpg
109.842691599973	3.00101589999394	decision	1.28251690004254	right	D	DD013.jpg	DD014.jpg
113.392523500021	1.00018849998014	win	NaN	n/a	n/a	DD013.jpg	DD014.jpg
120.32628769998	3.00149450002937	decision	1.03319570003077	left	S	SD017.jpg	SD018.jpg
123.876161499997	1.00001919997158	win	NaN	n/a	n/a	SD017.jpg	SD018.jpg
128.709488699969	3.00118840002688	decision	1.28228250000393	right	D	DD015.jpg	DD016.jpg
132.259489799966	1.01661240000976	win	NaN	n/a	n/a	DD015.jpg	DD016.jpg
137.126244299987	3.00083610002184	decision	1.28219190001255	left	S	SD019.jpg	SD020.jpg
140.676075199968	1.01664560002973	win	NaN	n/a	n/a	SD019.jpg	SD020.jpg
145.509510700009	3.00112729996908	decision	1.28305729996646	right	D	DD017.jpg	DD018.jpg
149.059250699996	1.00001159997191	win	NaN	n/a	n/a	DD017.jpg	DD018.jpg
162.292735699972	3.00185900001088	decision	1.03287370002363	left	S	SD021.jpg	SD022.jpg
165.842683599971	1.01654770004097	loss	NaN	n/a	n/a	SD021.jpg	SD022.jpg
172.775914400001	3.00096440000925	decision	1.03236539999489	right	S	SD023.jpg	SD024.jpg
176.325568099972	1.00039310002467	win	NaN	n/a	n/a	SD023.jpg	SD024.jpg
183.242989399994	3.00173050002195	decision	1.03259169997182	left	S	SD025.jpg	SD026.jpg
186.792432999995	1.00001030002022	loss	NaN	n/a	n/a	SD025.jpg	SD026.jpg
191.625853999984	3.00083279999672	decision	1.03235490003135	right	S	SD027.jpg	SD028.jpg
195.1757125	1.00006910000229	loss	NaN	n/a	n/a	SD027.jpg	SD028.jpg
197.925714700017	3.00175229995511	decision	1.28248719999101	left	D	DD019.jpg	DD020.jpg
201.475678499963	1.01659430004656	loss	NaN	n/a	n/a	DD019.jpg	DD020.jpg
204.225688299979	3.00195710000116	decision	1.78245160001097	left	D	DD021.jpg	DD022.jpg
207.775767599989	1.00008760002675	win	NaN	n/a	n/a	DD021.jpg	DD022.jpg
214.709178799996	3.00132969999686	decision	1.28235090000089	right	S	SD029.jpg	SD030.jpg
218.259245399968	1.01618370000506	loss	NaN	n/a	n/a	SD029.jpg	SD030.jpg
225.192188100016	3.00162029999774	decision	1.0329404999502	left	S	SD031.jpg	SD032.jpg
228.742277299985	1.01624010002706	win	NaN	n/a	n/a	SD031.jpg	SD032.jpg
233.57540099998	3.00135750003392	decision	1.03320629999507	left	D	DD023.jpg	DD024.jpg
237.125352100004	1.00009539996972	loss	NaN	n/a	n/a	DD023.jpg	DD024.jpg
239.858968099987	3.00166429998353	decision	1.03284800000256	right	D	DD025.jpg	DD026.jpg
243.408806599968	1.00019960000645	win	NaN	n/a	n/a	DD025.jpg	DD026.jpg
248.225597499986	3.00077919999603	decision	2.53353379998589	left	D	DD027.jpg	DD028.jpg
251.77564040001	1.0166704999865	loss	NaN	n/a	n/a	DD027.jpg	DD028.jpg
254.509106800018	3.00110860000132	decision	1.28243849996943	right	S	SD033.jpg	SD034.jpg
258.059017199965	1.01643160003005	loss	NaN	n/a	n/a	SD033.jpg	SD034.jpg
260.809018499975	3.00140350003494	decision	1.28242649999447	left	S	SD035.jpg	SD036.jpg
264.358912199968	1.00002130004577	loss	NaN	n/a	n/a	SD035.jpg	SD036.jpg
267.092341999989	3.00116540002637	decision	1.03336160001345	right	S	SD037.jpg	SD038.jpg
270.642072499963	1.01675970002543	win	NaN	n/a	n/a	SD037.jpg	SD038.jpg
277.575526500004	3.00093739997828	decision	1.2832056999905	left	D	DD029.jpg	DD030.jpg
281.125413800008	1.00000120000914	loss	NaN	n/a	n/a	DD029.jpg	DD030.jpg
283.859194999968	3.00166639999952	decision	1.2829589000321	right	D	DD031.jpg	DD032.jpg
287.408834400005	1.01655619998928	loss	NaN	n/a	n/a	DD031.jpg	DD032.jpg
292.258889499994	3.0017044999986	decision	1.03199470002437	left	D	DD033.jpg	DD034.jpg
295.808828899986	1.01623399998061	win	NaN	n/a	n/a	DD033.jpg	DD034.jpg
302.75841509999	3.00161019997904	decision	2.03371819999302	right	S	SD039.jpg	SD040.jpg
306.308757199964	1.0000052000396	loss	NaN	n/a	n/a	SD039.jpg	SD040.jpg
313.241790700005	3.0011445999844	decision	1.03259979997529	left	D	DD035.jpg	DD036.jpg
316.792022900016	1.01641349995043	win	NaN	n/a	n/a	DD035.jpg	DD036.jpg
319.541825899971	3.00154430000111	decision	1.28320480004186	left	D	DD037.jpg	DD038.jpg
323.092148099968	1.01629450003384	loss	NaN	n/a	n/a	DD037.jpg	DD038.jpg
325.842134099978	3.0002758000046	decision	1.03304650000064	right	D	DD039.jpg	DD040.jpg
329.391779400001	1.00057619996369	loss	NaN	n/a	n/a	DD039.jpg	DD040.jpg
