onset	duration	trial_type	rt	resp	gender	image_left	image_right
0.607417399995029	3.00108100002399	decision	1.53228500002297	left	D	DD017.jpg	DD018.jpg
4.15750829997705	1.01656980003463	loss	NaN	n/a	n/a	DD017.jpg	DD018.jpg
11.1242976000067	3.00136429996928	decision	1.28326110000489	right	D	DD035.jpg	DD036.jpg
14.6745172999799	1.0161554000224	win	NaN	n/a	n/a	DD035.jpg	DD036.jpg
21.624312800006	3.00089409999782	decision	1.53332220000448	right	D	DD021.jpg	DD022.jpg
25.1745530000189	1.00004439998884	loss	NaN	n/a	n/a	DD021.jpg	DD022.jpg
32.0911725999904	3.00058789999457	decision	1.0330321000074	right	S	SD025.jpg	SD026.jpg
35.6414626999758	1.01622869999846	loss	NaN	n/a	n/a	SD025.jpg	SD026.jpg
38.3911719999742	3.00113420002162	decision	1.28346650005551	right	S	SD027.jpg	SD028.jpg
41.9413291999954	1.01644510001643	loss	NaN	n/a	n/a	SD027.jpg	SD028.jpg
44.6746385000297	3.00206349999644	decision	1.28298249997897	right	S	SD023.jpg	SD024.jpg
48.224434099975	1.00015150004765	win	NaN	n/a	n/a	SD023.jpg	SD024.jpg
50.9580518000294	3.00165689998539	decision	1.28240259998711	left	D	DD037.jpg	DD038.jpg
54.5086644000257	1.01599539996823	win	NaN	n/a	n/a	DD037.jpg	DD038.jpg
59.358075199998	3.00171370001044	decision	1.28252270002849	left	S	SD011.jpg	SD012.jpg
62.9080426000291	1.00002809998114	loss	NaN	n/a	n/a	SD011.jpg	SD012.jpg
67.7248044000007	3.00163509999402	decision	1.03319430002011	right	D	DD009.jpg	DD010.jpg
71.2747363999952	1.01656920003006	win	NaN	n/a	n/a	DD009.jpg	DD010.jpg
74.0081772999838	3.00154980004299	decision	2.03247830003966	left	D	DD027.jpg	DD028.jpg
77.5583013999858	1.00037630001316	win	NaN	n/a	n/a	DD027.jpg	DD028.jpg
82.4083169000223	3.00126230000751	decision	1.03323249996174	left	D	DD015.jpg	DD016.jpg
85.9582847999991	1.00007130001904	loss	NaN	n/a	n/a	DD015.jpg	DD016.jpg
92.8916560999933	3.00120659999084	decision	1.03273879998596	right	S	SD029.jpg	SD030.jpg
96.4417300000205	1.01653249998344	loss	NaN	n/a	n/a	SD029.jpg	SD030.jpg
101.27517009998	3.00242390000494	decision	1.03296570002567	right	S	SD015.jpg	SD016.jpg
104.825127999997	1.0000119000324	win	NaN	n/a	n/a	SD015.jpg	SD016.jpg
111.742042800004	3.00071619998198	decision	1.03318879997823	left	S	SD007.jpg	SD008.jpg
115.292402299994	1.01611020002747	win	NaN	n/a	n/a	SD007.jpg	SD008.jpg
120.141873000015	3.00158829998691	decision	1.28352719999384	left	S	SD017.jpg	SD018.jpg
123.692003200005	1.00001329998486	win	NaN	n/a	n/a	SD017.jpg	SD018.jpg
126.425434499979	3.00103400001535	decision	1.28306330001215	right	D	DD033.jpg	DD034.jpg
129.975393500004	1.01701239997055	win	NaN	n/a	n/a	DD033.jpg	DD034.jpg
132.725357400021	3.00130139995599	decision	1.03333339997334	left	D	DD007.jpg	DD008.jpg
136.275382600026	1.01696239999728	loss	NaN	n/a	n/a	DD007.jpg	DD008.jpg
139.008785600017	3.00224489998072	decision	1.0327174999984	left	D	DD023.jpg	DD024.jpg
142.558943299984	1.01651350001339	loss	NaN	n/a	n/a	DD023.jpg	DD024.jpg
155.809194599977	3.00136780005414	decision	1.28214130003471	left	S	SD009.jpg	SD010.jpg
159.359020199976	1.00010570004815	loss	NaN	n/a	n/a	SD009.jpg	SD010.jpg
164.175916099979	3.00140290003037	decision	1.03375610004878	right	D	DD001.jpg	DD002.jpg
167.726070299977	1.00017480005044	win	NaN	n/a	n/a	DD001.jpg	DD002.jpg
170.475899600016	3.00202770001488	decision	1.03247819998069	left	S	SD019.jpg	SD020.jpg
174.025885200012	1.0003304000129	loss	NaN	n/a	n/a	SD019.jpg	SD020.jpg
180.959633800026	3.00138749997132	decision	1.53274479997344	right	D	DD031.jpg	DD032.jpg
184.509182700014	1.01703200000338	loss	NaN	n/a	n/a	DD031.jpg	DD032.jpg
189.342739299987	3.00124710000819	decision	1.03266740002437	right	S	SD005.jpg	SD006.jpg
192.892706700019	1.01660470000934	win	NaN	n/a	n/a	SD005.jpg	SD006.jpg
195.659676500014	3.00187249999726	decision	1.28385489998618	left	D	DD019.jpg	DD020.jpg
199.209310400009	1.00008919998072	win	NaN	n/a	n/a	DD019.jpg	DD020.jpg
206.126260599995	3.00101360003464	decision	1.53308900003321	left	S	SD013.jpg	SD014.jpg
209.676074900024	1.00005469995085	loss	NaN	n/a	n/a	SD013.jpg	SD014.jpg
216.593526499986	3.0010719000129	decision	1.28267089999281	right	S	SD031.jpg	SD032.jpg
220.142924899992	1.0000088000088	loss	NaN	n/a	n/a	SD031.jpg	SD032.jpg
224.976316399989	3.00093249999918	decision	1.0330730000278	right	D	DD039.jpg	DD040.jpg
228.5263653	1.01661739998963	loss	NaN	n/a	n/a	DD039.jpg	DD040.jpg
231.276395599998	3.00118630001089	decision	1.03310260002036	left	D	DD005.jpg	DD006.jpg
234.82661540003	1.00012309994781	loss	NaN	n/a	n/a	DD005.jpg	DD006.jpg
241.760006900004	3.00133260001894	decision	1.2823457000195	left	S	SD037.jpg	SD038.jpg
245.309765100013	1.00005390000297	loss	NaN	n/a	n/a	SD037.jpg	SD038.jpg
248.043230700016	3.00134779996006	decision	1.28319089999422	left	S	SD039.jpg	SD040.jpg
251.593232000014	1.01682620000793	win	NaN	n/a	n/a	SD039.jpg	SD040.jpg
254.326766700018	3.00156070000958	decision	1.28327680000803	right	S	SD033.jpg	SD034.jpg
257.876797300007	1.0170035000192	loss	NaN	n/a	n/a	SD033.jpg	SD034.jpg
260.626761500025	3.00199119996978	decision	1.28287549997913	left	D	DD013.jpg	DD014.jpg
264.176738500013	1.0165990999667	win	NaN	n/a	n/a	DD013.jpg	DD014.jpg
269.010092400014	3.00071789999492	decision	1.53309849998914	right	S	SD001.jpg	SD002.jpg
272.560090499988	1.01664149999851	win	NaN	n/a	n/a	SD001.jpg	SD002.jpg
275.3101761	3.00068090000423	decision	1.28322189999744	right	D	DD003.jpg	DD004.jpg
278.860159299977	1.00005440000677	win	NaN	n/a	n/a	DD003.jpg	DD004.jpg
283.67688839999	3.00091980001889	decision	1.03427790000569	left	S	SD003.jpg	SD004.jpg
287.227074499999	1.01667969999835	win	NaN	n/a	n/a	SD003.jpg	SD004.jpg
294.160357400018	3.00245209998684	decision	1.03388249996351	right	D	DD025.jpg	DD026.jpg
297.711665600014	1.01515069999732	win	NaN	n/a	n/a	DD025.jpg	DD026.jpg
304.660521999991	3.0011916999938	decision	1.03263670002343	right	S	SD035.jpg	SD036.jpg
308.210444700031	1.00028209999437	win	NaN	n/a	n/a	SD035.jpg	SD036.jpg
310.943882199994	3.00108620000537	decision	1.5332439999911	left	D	DD011.jpg	DD012.jpg
314.493924400012	1.00006779999239	loss	NaN	n/a	n/a	DD011.jpg	DD012.jpg
317.227374600014	3.00174500001594	decision	1.03244079998694	left	S	SD021.jpg	SD022.jpg
320.777167399996	1.01677960000234	win	NaN	n/a	n/a	SD021.jpg	SD022.jpg
325.610804700002	3.00081800000044	decision	1.03229579998879	right	D	DD029.jpg	DD030.jpg
329.160824800027	1.01642050000373	loss	NaN	n/a	n/a	DD029.jpg	DD030.jpg
