onset	duration	trial_type	rt	resp	gender	image_left	image_right
0.600324400002137	3.00041369999963	decision	1.78336180000042	left	S	SD001.jpg	SD002.jpg
4.15015789999961	1.01666370000021	win	NaN	n/a	n/a	SD001.jpg	SD002.jpg
11.1001499000013	3.00146619999941	decision	1.78349489999891	right	S	SD003.jpg	SD004.jpg
14.6500771000028	1.01669589999801	loss	NaN	n/a	n/a	SD003.jpg	SD004.jpg
17.3834539000018	3.00037299999894	decision	1.78323639999871	right	S	SD005.jpg	SD006.jpg
20.9334507000021	1.00029119999817	win	NaN	n/a	n/a	SD005.jpg	SD006.jpg
23.6502325000001	3.00079240000196	decision	2.0331565000015	right	D	DD001.jpg	DD002.jpg
27.2001289	1.00023300000248	win	NaN	n/a	n/a	DD001.jpg	DD002.jpg
32.0335851000018	3.00181869999869	decision	1.78286540000045	right	D	DD003.jpg	DD004.jpg
35.5835097000017	1.01656770000045	loss	NaN	n/a	n/a	DD003.jpg	DD004.jpg
42.5168871000024	3.0010884000003	decision	1.78267199999755	left	S	SD007.jpg	SD008.jpg
46.0667309000019	1.01680610000039	loss	NaN	n/a	n/a	SD007.jpg	SD008.jpg
50.9169492000001	3.00141310000254	decision	1.78366950000054	right	S	SD009.jpg	SD010.jpg
54.4666524000022	1.00011860000086	win	NaN	n/a	n/a	SD009.jpg	SD010.jpg
59.3166876000032	3.00000039999941	decision	1.53304449999996	left	D	DD005.jpg	DD006.jpg
62.8667246000005	1.00010640000255	loss	NaN	n/a	n/a	DD005.jpg	DD006.jpg
65.6004441000005	3.00134350000008	decision	1.78229909999936	right	D	DD007.jpg	DD008.jpg
69.150402700001	1.0163692999995	win	NaN	n/a	n/a	DD007.jpg	DD008.jpg
71.9003320000011	3.00119970000014	decision	1.53349499999968	right	D	DD009.jpg	DD010.jpg
75.4500182000011	1.00002830000085	win	NaN	n/a	n/a	DD009.jpg	DD010.jpg
78.1834755000018	3.00143829999797	decision	1.53397870000117	left	D	DD011.jpg	DD012.jpg
81.7332845000019	1.00004559999797	loss	NaN	n/a	n/a	DD011.jpg	DD012.jpg
86.5667003000017	3.0011654000009	decision	2.03404310000042	left	S	SD011.jpg	SD012.jpg
90.1172675000016	1.00055670000074	loss	NaN	n/a	n/a	SD011.jpg	SD012.jpg
92.8334641000001	3.00071260000186	decision	2.03319920000285	left	S	SD013.jpg	SD014.jpg
96.3834686000009	1.01644429999942	win	NaN	n/a	n/a	SD013.jpg	SD014.jpg
103.316716200003	3.00178839999717	decision	1.53332459999729	right	S	SD015.jpg	SD016.jpg
106.866633400001	1.00002940000195	win	NaN	n/a	n/a	SD015.jpg	SD016.jpg
109.600087300001	3.00160120000146	decision	1.78324449999855	left	D	DD013.jpg	DD014.jpg
113.149974400003	1.01651919999858	win	NaN	n/a	n/a	DD013.jpg	DD014.jpg
120.100254300003	3.00147789999755	decision	1.53243779999684	right	S	SD017.jpg	SD018.jpg
123.6499172	1.00000940000245	win	NaN	n/a	n/a	SD017.jpg	SD018.jpg
128.5001362	3.00125770000159	decision	1.78219460000037	left	D	DD015.jpg	DD016.jpg
132.0498334	1.0003792000025	win	NaN	n/a	n/a	DD015.jpg	DD016.jpg
136.899986500001	3.0018682000009	decision	1.78372440000021	left	S	SD019.jpg	SD020.jpg
140.450075500001	1.01670070000182	win	NaN	n/a	n/a	SD019.jpg	SD020.jpg
145.299867400001	3.00155860000086	decision	2.0338144999987	right	D	DD017.jpg	DD018.jpg
148.849836000001	1.00016659999892	win	NaN	n/a	n/a	DD017.jpg	DD018.jpg
162.083310800001	3.00103529999978	decision	1.78352020000239	right	S	SD021.jpg	SD022.jpg
165.633139200003	1.00006479999865	loss	NaN	n/a	n/a	SD021.jpg	SD022.jpg
172.5498267	3.00047950000226	decision	1.78308400000242	left	S	SD023.jpg	SD024.jpg
176.099814700003	1.00033059999987	win	NaN	n/a	n/a	SD023.jpg	SD024.jpg
183.016505400003	3.0020145999988	decision	1.78368810000029	left	S	SD025.jpg	SD026.jpg
186.566460800001	1.00006080000094	loss	NaN	n/a	n/a	SD025.jpg	SD026.jpg
191.4003581	3.00214490000144	decision	1.53197270000237	left	S	SD027.jpg	SD028.jpg
194.949702600003	1.00003039999865	loss	NaN	n/a	n/a	SD027.jpg	SD028.jpg
197.699937400001	3.00174930000139	decision	1.7834870000006	left	D	DD019.jpg	DD020.jpg
201.249854100002	1.01652679999825	loss	NaN	n/a	n/a	DD019.jpg	DD020.jpg
203.9998098	3.0008009000012	decision	1.7834354000006	right	D	DD021.jpg	DD022.jpg
207.549736700003	1.01666019999902	win	NaN	n/a	n/a	DD021.jpg	DD022.jpg
214.499867100003	3.00172559999919	decision	1.5327890999979	left	S	SD029.jpg	SD030.jpg
218.0498028	1.01686520000294	loss	NaN	n/a	n/a	SD029.jpg	SD030.jpg
224.983222500003	3.00075440000001	decision	1.78324269999939	left	S	SD031.jpg	SD032.jpg
228.5331057	1.01648760000171	win	NaN	n/a	n/a	SD031.jpg	SD032.jpg
233.383181100002	3.00012810000044	decision	1.53308520000064	right	D	DD023.jpg	DD024.jpg
236.933137700002	1.00016949999917	loss	NaN	n/a	n/a	DD023.jpg	DD024.jpg
239.649706	3.00081190000128	decision	1.53308870000183	left	D	DD025.jpg	DD026.jpg
243.1995241	1.0001368000012	win	NaN	n/a	n/a	DD025.jpg	DD026.jpg
248.016565400001	3.00075600000127	decision	1.53313740000158	right	D	DD027.jpg	DD028.jpg
251.5664545	1.00021280000146	loss	NaN	n/a	n/a	DD027.jpg	DD028.jpg
254.299701900003	3.0016951999969	decision	1.28381719999743	left	S	SD033.jpg	SD034.jpg
257.849675100002	1.01672160000089	loss	NaN	n/a	n/a	SD033.jpg	SD034.jpg
260.5997393	3.00070190000042	decision	1.78303490000326	right	S	SD035.jpg	SD036.jpg
264.149627900002	1.00004759999865	loss	NaN	n/a	n/a	SD035.jpg	SD036.jpg
266.883024700001	3.00037670000165	decision	1.53306879999946	right	S	SD037.jpg	SD038.jpg
270.432944400003	1.00028069999826	win	NaN	n/a	n/a	SD037.jpg	SD038.jpg
277.366289900001	3.00134030000117	decision	1.53333120000025	right	D	DD029.jpg	DD030.jpg
280.916232700001	1.00009399999908	loss	NaN	n/a	n/a	DD029.jpg	DD030.jpg
283.649899800002	3.0017771999992	decision	1.53236289999768	left	D	DD031.jpg	DD032.jpg
287.199617900002	1.00001820000034	loss	NaN	n/a	n/a	DD031.jpg	DD032.jpg
292.033004200002	3.0008362999979	decision	1.78334969999923	left	D	DD033.jpg	DD034.jpg
295.582910600002	1.01655359999859	win	NaN	n/a	n/a	DD033.jpg	DD034.jpg
302.532945700001	3.00159320000239	decision	1.28298780000114	right	S	SD039.jpg	SD040.jpg
306.082846100002	1.0000297000006	loss	NaN	n/a	n/a	SD039.jpg	SD040.jpg
313.033806800002	3.00016759999926	decision	1.28226400000131	left	D	DD035.jpg	DD036.jpg
316.582842100001	1.01664789999995	win	NaN	n/a	n/a	DD035.jpg	DD036.jpg
319.3329801	3.00174030000198	decision	1.78258960000312	right	D	DD037.jpg	DD038.jpg
322.882800900003	1.00001619999966	loss	NaN	n/a	n/a	DD037.jpg	DD038.jpg
325.616238000002	3.00133029999779	decision	1.53354879999824	right	D	DD039.jpg	DD040.jpg
329.166148600001	1.01661999999851	loss	NaN	n/a	n/a	DD039.jpg	DD040.jpg
