onset	duration	trial_type	rt	resp	gender	image_left	image_right
0.601871199905872	3.03686779993586	decision-missed	n/a	n/a	S	SD001.jpg	SD002.jpg
4.18506020004861	1.00010219984688	win	n/a	n/a	n/a	SD001.jpg	SD002.jpg
11.1016408998985	3.03725950000808	decision-missed	n/a	n/a	S	SD003.jpg	SD004.jpg
14.6849078000523	1.00000159977935	loss	n/a	n/a	n/a	SD003.jpg	SD004.jpg
17.4017195999622	3.0381905999966	decision-missed	n/a	n/a	S	SD005.jpg	SD006.jpg
20.984968499979	1.01670549996197	win	n/a	n/a	n/a	SD005.jpg	SD006.jpg
23.7182155000046	3.03840499999933	decision-missed	n/a	n/a	D	DD001.jpg	DD002.jpg
27.3018225999549	1.01639000000432	win	n/a	n/a	n/a	DD001.jpg	DD002.jpg
32.1516853999346	3.03748710011132	decision-missed	n/a	n/a	D	DD003.jpg	DD004.jpg
35.7348342000041	1.00001610000618	loss	n/a	n/a	n/a	DD003.jpg	DD004.jpg
42.6518331000116	3.03971429984085	decision-missed	n/a	n/a	S	SD007.jpg	SD008.jpg
46.2348235999234	1.00003540003672	loss	n/a	n/a	n/a	SD007.jpg	SD008.jpg
51.0682126998436	3.03737570019439	decision-missed	n/a	n/a	S	SD009.jpg	SD010.jpg
54.6518627000041	1.01636899984442	win	n/a	n/a	n/a	SD009.jpg	SD010.jpg
59.50158130005	3.03650259994902	decision-missed	n/a	n/a	D	DD005.jpg	DD006.jpg
63.0848309998401	1.01695870002732	loss	n/a	n/a	n/a	DD005.jpg	DD006.jpg
65.8348101000302	3.03648509993218	decision-missed	n/a	n/a	D	DD007.jpg	DD008.jpg
69.419040299952	1.01557060005143	win	n/a	n/a	n/a	DD007.jpg	DD008.jpg
72.1681146000046	3.03894139989279	decision-missed	n/a	n/a	D	DD009.jpg	DD010.jpg
75.751338099828	1.00016540009528	win	n/a	n/a	n/a	DD009.jpg	DD010.jpg
78.4849558998831	3.03841540007852	decision-missed	n/a	n/a	D	DD011.jpg	DD012.jpg
82.0682812999003	1.01642849994823	loss	n/a	n/a	n/a	DD011.jpg	DD012.jpg
86.9180601998232	3.03531300020404	decision-missed	n/a	n/a	S	SD011.jpg	SD012.jpg
90.5011897999793	1.00028699985705	loss	n/a	n/a	n/a	SD011.jpg	SD012.jpg
93.2181638998445	3.03672010009177	decision-missed	n/a	n/a	S	SD013.jpg	SD014.jpg
96.8014676000457	1.01657029986382	win	n/a	n/a	n/a	SD013.jpg	SD014.jpg
103.734661699971	3.0375840999186	decision-missed	n/a	n/a	S	SD015.jpg	SD016.jpg
107.318562899949	1.01623279997148	win	n/a	n/a	n/a	SD015.jpg	SD016.jpg
110.068900399841	3.03697830019519	decision-missed	n/a	n/a	D	DD013.jpg	DD014.jpg
113.651254900033	1.00013239984401	win	n/a	n/a	n/a	DD013.jpg	DD014.jpg
120.58466809988	3.03891630005091	decision-missed	n/a	n/a	S	SD017.jpg	SD018.jpg
124.168019499863	1.01658389996737	win	n/a	n/a	n/a	SD017.jpg	SD018.jpg
129.034606599947	3.03680650005117	decision-missed	n/a	n/a	D	DD015.jpg	DD016.jpg
132.618008699967	1.01650379993953	win	n/a	n/a	n/a	DD015.jpg	DD016.jpg
137.484624000033	3.03610249981284	decision-missed	n/a	n/a	S	SD019.jpg	SD020.jpg
141.067982999841	1.00003410014324	win	n/a	n/a	n/a	SD019.jpg	SD020.jpg
145.884715999942	3.03717430005781	decision-missed	n/a	n/a	D	DD017.jpg	DD018.jpg
149.467805600027	1.00118369981647	win	n/a	n/a	n/a	DD017.jpg	DD018.jpg
162.701155599905	3.03865629993379	decision-missed	n/a	n/a	S	SD021.jpg	SD022.jpg
166.284486299846	1.00015440001152	loss	n/a	n/a	n/a	SD021.jpg	SD022.jpg
173.201255099848	3.04037080006674	decision-missed	n/a	n/a	S	SD023.jpg	SD024.jpg
176.784436800051	1.00002419995144	win	n/a	n/a	n/a	SD023.jpg	SD024.jpg
183.7179570999	3.03558479994535	decision-missed	n/a	n/a	S	SD025.jpg	SD026.jpg
187.301156499889	1.01652649999596	loss	n/a	n/a	n/a	SD025.jpg	SD026.jpg
192.151187499985	3.03620420000516	decision-missed	n/a	n/a	S	SD027.jpg	SD028.jpg
195.734414999839	1.01676300005056	loss	n/a	n/a	n/a	SD027.jpg	SD028.jpg
198.501221099868	3.03943490004167	decision-missed	n/a	n/a	D	DD019.jpg	DD020.jpg
202.084361099871	1.01659230003133	loss	n/a	n/a	n/a	DD019.jpg	DD020.jpg
204.834341899958	3.03790779993869	decision-missed	n/a	n/a	D	DD021.jpg	DD022.jpg
208.417530599982	1.00001830002293	win	n/a	n/a	n/a	DD021.jpg	DD022.jpg
215.35111259995	3.03785940003581	decision-missed	n/a	n/a	S	SD029.jpg	SD030.jpg
218.934363599867	1.01655090018176	loss	n/a	n/a	n/a	SD029.jpg	SD030.jpg
225.867576600052	3.03766229981557	decision-missed	n/a	n/a	S	SD031.jpg	SD032.jpg
229.451064700028	1.01643479987979	win	n/a	n/a	n/a	SD031.jpg	SD032.jpg
234.284255399834	3.03762060008012	decision-missed	n/a	n/a	D	DD023.jpg	DD024.jpg
237.867505699862	1.00010840012692	loss	n/a	n/a	n/a	DD023.jpg	DD024.jpg
240.584325399948	3.03913130005822	decision-missed	n/a	n/a	D	DD025.jpg	DD026.jpg
244.16732420004	1.01677279989235	win	n/a	n/a	n/a	DD025.jpg	DD026.jpg
249.000838199863	3.03837150009349	decision-missed	n/a	n/a	D	DD027.jpg	DD028.jpg
252.584145099856	1.01680810004473	loss	n/a	n/a	n/a	DD027.jpg	DD028.jpg
255.33454099996	3.03669700003229	decision-missed	n/a	n/a	S	SD033.jpg	SD034.jpg
258.917522599921	1.0165443001315	loss	n/a	n/a	n/a	SD033.jpg	SD034.jpg
261.66734559997	3.03566100005992	decision-missed	n/a	n/a	S	SD035.jpg	SD036.jpg
265.250807499979	1.01666869991459	loss	n/a	n/a	n/a	SD035.jpg	SD036.jpg
268.000813300023	3.03631729981862	decision-missed	n/a	n/a	S	SD037.jpg	SD038.jpg
271.585045099957	1.01536859991029	win	n/a	n/a	n/a	SD037.jpg	SD038.jpg
278.534155299887	3.03882830007933	decision-missed	n/a	n/a	D	DD029.jpg	DD030.jpg
282.117296200013	1.00000269990414	loss	n/a	n/a	n/a	DD029.jpg	DD030.jpg
284.85072509991	3.03745390009135	decision-missed	n/a	n/a	D	DD031.jpg	DD032.jpg
288.434127599932	1.01646240008995	loss	n/a	n/a	n/a	DD031.jpg	DD032.jpg
293.283973299898	3.03906630002894	decision-missed	n/a	n/a	D	DD033.jpg	DD034.jpg
296.867334899958	1.01656150002964	win	n/a	n/a	n/a	DD033.jpg	DD034.jpg
303.817347599892	3.03955640015192	decision-missed	n/a	n/a	S	SD039.jpg	SD040.jpg
307.40050489991	1.00003440002911	loss	n/a	n/a	n/a	SD039.jpg	SD040.jpg
314.350589999929	3.0402621999383	decision-missed	n/a	n/a	D	DD035.jpg	DD036.jpg
317.933833899908	1.01670229993761	win	n/a	n/a	n/a	DD035.jpg	DD036.jpg
320.683828299865	3.0367072999943	decision-missed	n/a	n/a	D	DD037.jpg	DD038.jpg
324.267211599974	1.0166018998716	loss	n/a	n/a	n/a	DD037.jpg	DD038.jpg
327.017375699943	3.0383355000522	decision-missed	n/a	n/a	D	DD039.jpg	DD040.jpg
330.60067259986	1.01642980007455	loss	n/a	n/a	n/a	DD039.jpg	DD040.jpg
