onset	duration	trial_type	rt	resp	gender	image_left	image_right
0.615681699942797	3.00177079997957	decision	1.53228740021586	left	S	SD001.jpg	SD002.jpg
4.16548130009323	1.00013739988208	win	NaN	n/a	n/a	SD001.jpg	SD002.jpg
11.0989425000735	3.00215360010043	decision	1.78263550018892	left	S	SD003.jpg	SD004.jpg
14.6491616000421	1.01644989987835	loss	NaN	n/a	n/a	SD003.jpg	SD004.jpg
17.3988308999687	3.00197620037943	decision	1.53274379996583	left	S	SD005.jpg	SD006.jpg
20.9489601999521	1.00018700025976	win	NaN	n/a	n/a	SD005.jpg	SD006.jpg
23.6826236001216	3.00093040009961	decision	1.53238230012357	left	D	DD001.jpg	DD002.jpg
27.2326116003096	1.01664929976687	win	NaN	n/a	n/a	DD001.jpg	DD002.jpg
32.0824925000779	3.00125000020489	decision	1.53252130001783	left	D	DD003.jpg	DD004.jpg
35.6326864003204	1.01636829972267	loss	NaN	n/a	n/a	DD003.jpg	DD004.jpg
42.5660794000141	3.00123269995674	decision	1.28236349998042	left	S	SD007.jpg	SD008.jpg
46.1161328000017	1.01642889995128	loss	NaN	n/a	n/a	SD007.jpg	SD008.jpg
50.9660097002052	3.00176690006629	decision	1.28253939980641	left	S	SD009.jpg	SD010.jpg
54.5159911001101	1.01699740020558	win	NaN	n/a	n/a	SD009.jpg	SD010.jpg
59.3828926999122	3.00137010030448	decision	1.28205280005932	left	D	DD005.jpg	DD006.jpg
62.932964600157	1.01660910015926	loss	NaN	n/a	n/a	DD005.jpg	DD006.jpg
65.6831144001335	3.00093089975417	decision	1.53224510001019	left	D	DD007.jpg	DD008.jpg
69.2330502001569	1.01663589989766	win	NaN	n/a	n/a	DD007.jpg	DD008.jpg
71.983045599889	3.00098840007558	decision	1.53349600033835	left	D	DD009.jpg	DD010.jpg
75.5326585001312	1.00036109983921	win	NaN	n/a	n/a	DD009.jpg	DD010.jpg
78.2662851000205	3.00184429995716	decision	1.2837856002152	left	D	DD011.jpg	DD012.jpg
81.8161893999204	1.00028000026941	loss	NaN	n/a	n/a	DD011.jpg	DD012.jpg
86.6498639001511	3.0019990997389	decision	1.28296050010249	left	S	SD011.jpg	SD012.jpg
90.1997748003341	1.00010429974645	loss	NaN	n/a	n/a	SD011.jpg	SD012.jpg
92.9331022002734	3.00136449979618	decision	1.53255599969998	left	S	SD013.jpg	SD014.jpg
96.483170399908	1.01654920028523	win	NaN	n/a	n/a	SD013.jpg	SD014.jpg
103.433338900097	3.00030730012804	decision	1.78245319984853	left	S	SD015.jpg	SD016.jpg
106.983408600092	1.01654440024868	win	NaN	n/a	n/a	SD015.jpg	SD016.jpg
109.73348909989	3.00125520024449	decision	1.53236450022087	left	D	DD013.jpg	DD014.jpg
113.283327800222	1.01675319997594	win	NaN	n/a	n/a	DD013.jpg	DD014.jpg
120.23329210002	3.000923700165	decision	1.78217090014368	left	S	SD017.jpg	SD018.jpg
123.783480800223	1.00001849979162	win	NaN	n/a	n/a	SD017.jpg	SD018.jpg
128.633370799944	3.00085830036551	decision	1.28389429999515	left	D	DD015.jpg	DD016.jpg
132.183575500268	1.01649639988318	win	NaN	n/a	n/a	DD015.jpg	DD016.jpg
137.050111700315	3.00085419975221	decision	1.53322659991682	left	S	SD019.jpg	SD020.jpg
140.600025500171	1.00029970007017	win	NaN	n/a	n/a	SD019.jpg	SD020.jpg
145.433798100334	3.00119759980589	decision	1.5333986999467	left	D	DD017.jpg	DD018.jpg
148.983741800301	1.01667279982939	win	NaN	n/a	n/a	DD017.jpg	DD018.jpg
162.233937799931	3.0012402003631	decision	1.28221350023523	left	S	SD021.jpg	SD022.jpg
165.783694100101	1.01683080010116	loss	NaN	n/a	n/a	SD021.jpg	SD022.jpg
172.734014200047	3.000877100043	decision	1.78319279989228	left	S	SD023.jpg	SD024.jpg
176.283692100085	1.01657069986686	win	NaN	n/a	n/a	SD023.jpg	SD024.jpg
183.234136000276	3.00121349981055	decision	1.53283170005307	left	S	SD025.jpg	SD026.jpg
186.784011499956	1.01643209997565	loss	NaN	n/a	n/a	SD025.jpg	SD026.jpg
191.634143699892	3.0009682001546	decision	1.28214770043269	left	S	SD027.jpg	SD028.jpg
195.184249900281	1.01639459980652	loss	NaN	n/a	n/a	SD027.jpg	SD028.jpg
197.950661899988	3.00097479997203	decision	1.53328450024128	left	D	DD019.jpg	DD020.jpg
201.500907700043	1.01650260016322	loss	NaN	n/a	n/a	DD019.jpg	DD020.jpg
204.250950499903	3.00059550022706	decision	2.3004960003309	left	D	DD021.jpg	DD022.jpg
207.800956100225	1.01663159998134	win	NaN	n/a	n/a	DD021.jpg	DD022.jpg
214.750820900314	3.00099849980325	decision	1.78317009983584	left	S	SD029.jpg	SD030.jpg
218.300772400107	1.00029370002449	loss	NaN	n/a	n/a	SD029.jpg	SD030.jpg
225.234536699951	3.0009452002123	decision	1.78225219994783	left	S	SD031.jpg	SD032.jpg
228.78440960031	1.01642679981887	win	NaN	n/a	n/a	SD031.jpg	SD032.jpg
233.634490100201	3.00152419973165	decision	1.53378679975867	left	D	DD023.jpg	DD024.jpg
237.184291900136	1.00001910002902	loss	NaN	n/a	n/a	DD023.jpg	DD024.jpg
239.917791100219	3.00121610006317	decision	1.5325972000137	left	D	DD025.jpg	DD026.jpg
243.467898200266	1.0166527996771	win	NaN	n/a	n/a	DD025.jpg	DD026.jpg
248.317798800301	3.00084809958935	decision	1.53256820002571	left	D	DD027.jpg	DD028.jpg
251.867815500125	1.01688920008019	loss	NaN	n/a	n/a	DD027.jpg	DD028.jpg
254.618129600305	3.00099089974537	decision	2.03229559957981	left	S	SD033.jpg	SD034.jpg
258.167874500155	1.01644839998335	loss	NaN	n/a	n/a	SD033.jpg	SD034.jpg
260.918339500204	3.0004805997014	decision	1.28223109990358	left	S	SD035.jpg	SD036.jpg
264.467943999916	1.01691380003467	loss	NaN	n/a	n/a	SD035.jpg	SD036.jpg
267.218248399906	3.00048260018229	decision	1.53254770021886	left	S	SD037.jpg	SD038.jpg
270.768145800103	1.00002480018884	win	NaN	n/a	n/a	SD037.jpg	SD038.jpg
277.701710700057	3.00237020011991	decision	1.53289310028777	left	D	DD029.jpg	DD030.jpg
281.251715000253	1.01622359966859	loss	NaN	n/a	n/a	DD029.jpg	DD030.jpg
284.001703300048	3.00111699989066	decision	1.53246980020776	left	D	DD031.jpg	DD032.jpg
287.551432400011	1.00026550004259	loss	NaN	n/a	n/a	DD031.jpg	DD032.jpg
292.385176400188	3.0011499999091	decision	1.78225889988244	left	D	DD033.jpg	DD034.jpg
295.935075100046	1.01623470010236	win	NaN	n/a	n/a	DD033.jpg	DD034.jpg
302.885194200091	3.00190200004727	decision	1.28284140024334	left	S	SD039.jpg	SD040.jpg
306.435110700317	1.01671559968963	loss	NaN	n/a	n/a	SD039.jpg	SD040.jpg
313.401868800167	3.00108700012788	decision	1.28237859997898	left	D	DD035.jpg	DD036.jpg
316.951868399978	1.00002720020711	win	NaN	n/a	n/a	DD035.jpg	DD036.jpg
319.685104100034	3.00138140004128	decision	1.2833266002126	left	D	DD037.jpg	DD038.jpg
323.23527530022	1.00002419995144	loss	NaN	n/a	n/a	DD037.jpg	DD038.jpg
325.968706900254	3.00115410005674	decision	1.53243619995192	left	D	DD039.jpg	DD040.jpg
329.518717000261	1.01660849992186	loss	NaN	n/a	n/a	DD039.jpg	DD040.jpg
