onset	duration	trial_type	rt	resp	gender	image_left	image_right
0.649200100044254	3.00179299997399	decision	1.28440959996078	left	M	MF001.jpg	MF002.jpg
4.1989872000413	1.00000679999357	win	NaN	n/a	n/a	MF001.jpg	MF002.jpg
11.1655527999974	3.00128260004567	decision	1.78337820002344	left	M	MF003.jpg	MF004.jpg
14.7155541999964	1.01659130002372	loss	NaN	n/a	n/a	MF003.jpg	MF004.jpg
17.4989215000533	3.00136609998299	decision	2.03266509994864	left	M	MF005.jpg	MF006.jpg
21.0493004000164	1.00064169999678	win	NaN	n/a	n/a	MF005.jpg	MF006.jpg
23.8156005000346	3.00061230000574	decision	1.03333040000871	right	F	FF001.jpg	FF002.jpg
27.3655510000535	1.01657429995248	win	NaN	n/a	n/a	FF001.jpg	FF002.jpg
32.2490168000222	3.00069740001345	decision	1.78304670000216	left	F	FF003.jpg	FF004.jpg
35.7990285000415	1.01641549996566	loss	NaN	n/a	n/a	FF003.jpg	FF004.jpg
42.78211010003	3.00110390002374	decision	1.78339789999882	left	M	MF007.jpg	MF008.jpg
46.3321442000451	1.00001570000313	loss	NaN	n/a	n/a	MF007.jpg	MF008.jpg
51.1989026000374	3.00173509999877	decision	1.28367559995968	right	M	MF009.jpg	MF010.jpg
54.7489202000434	1.00005380000221	win	NaN	n/a	n/a	MF009.jpg	MF010.jpg
59.5989399000537	3.0013207999873	decision	2.03332659997977	left	F	FF005.jpg	FF006.jpg
63.1485815000487	1.00010209996253	loss	NaN	n/a	n/a	FF005.jpg	FF006.jpg
65.9155246000155	3.00098200002685	decision	1.53304870001739	left	F	FF007.jpg	FF008.jpg
69.4654383000452	1.01670769997872	win	NaN	n/a	n/a	FF007.jpg	FF008.jpg
72.2488209000439	3.00073049997445	decision	2.28318929998204	right	F	FF009.jpg	FF010.jpg
75.7988504000241	1.01652120001381	win	NaN	n/a	n/a	FF009.jpg	FF010.jpg
78.5821799000259	3.00039050000487	decision	2.03400069999043	left	F	FF011.jpg	FF012.jpg
82.1322728000232	1.01632729999255	loss	NaN	n/a	n/a	FF011.jpg	FF012.jpg
87.0154596000211	3.00159810000332	decision	2.03276209998876	right	M	MF011.jpg	MF012.jpg
90.5653902000049	1.0167708999943	loss	NaN	n/a	n/a	MF011.jpg	MF012.jpg
93.3490583000239	3.00144119997276	decision	2.03315119998297	right	M	MF013.jpg	MF014.jpg
96.8988359000068	1.00012320000678	win	NaN	n/a	n/a	MF013.jpg	MF014.jpg
103.865474500053	3.00107089994708	decision	2.29950019996613	right	M	MF015.jpg	MF016.jpg
107.415349900024	1.00003270001616	win	NaN	n/a	n/a	MF015.jpg	MF016.jpg
110.198831300018	3.0017922000261	decision	2.79962050000904	left	F	FF013.jpg	FF014.jpg
113.74871200003	1.00002159998985	win	NaN	n/a	n/a	FF013.jpg	FF014.jpg
120.715408700053	3.00050019996706	decision	1.78411839995533	right	M	MF017.jpg	MF018.jpg
124.265394700051	1.00002829998266	win	NaN	n/a	n/a	MF017.jpg	MF018.jpg
129.132142100018	3.00191809999524	decision	1.2823645999888	right	F	FF015.jpg	FF016.jpg
132.682066000008	1.01661550003337	win	NaN	n/a	n/a	FF015.jpg	FF016.jpg
137.565344800008	3.00114200002281	decision	1.78311060002306	right	M	MF019.jpg	MF020.jpg
141.115293500014	1.00009049999062	win	NaN	n/a	n/a	MF019.jpg	MF020.jpg
145.982150199998	3.00095380004495	decision	2.28286400000798	right	F	FF017.jpg	FF018.jpg
149.531971500022	1.0001352999825	win	NaN	n/a	n/a	FF017.jpg	FF018.jpg
162.798683300032	3.00163060001796	decision	2.54999979998684	right	M	MF021.jpg	MF022.jpg
166.348600000027	1.01674900000216	loss	NaN	n/a	n/a	MF021.jpg	MF022.jpg
173.332034300023	3.001518199977	decision	2.78448630002094	left	M	MF023.jpg	MF024.jpg
176.882040500001	1.01649609999731	win	NaN	n/a	n/a	MF023.jpg	MF024.jpg
183.866176300042	3.00148939999053	decision	2.03221320000011	right	M	MF025.jpg	MF026.jpg
187.415366600035	1.01652519998606	loss	NaN	n/a	n/a	MF025.jpg	MF026.jpg
192.298617599998	3.00056710001081	decision	2.53324000001885	left	M	MF027.jpg	MF028.jpg
195.848606700019	1.01658140000654	loss	NaN	n/a	n/a	MF027.jpg	MF028.jpg
198.632075800037	3.00047059997451	decision	2.0335955999908	right	F	FF019.jpg	FF020.jpg
202.182068600028	1.01653329998953	loss	NaN	n/a	n/a	FF019.jpg	FF020.jpg
204.965272400004	3.00126089999685	decision	1.28293240000494	left	F	FF021.jpg	FF022.jpg
208.515107600018	1.00021070003277	win	NaN	n/a	n/a	FF021.jpg	FF022.jpg
215.481923300016	3.00089989998378	decision	1.78345430002082	left	M	MF029.jpg	MF030.jpg
219.031957400031	0.999999199993908	loss	NaN	n/a	n/a	MF029.jpg	MF030.jpg
225.998522600043	3.00137959996937	decision	1.78301749995444	right	M	MF031.jpg	MF032.jpg
229.548481100006	1.00006710004527	win	NaN	n/a	n/a	MF031.jpg	MF032.jpg
234.415362300002	3.00015570002142	decision	1.28318600001512	left	F	FF023.jpg	FF024.jpg
237.965203900007	1.0166492999997	loss	NaN	n/a	n/a	FF023.jpg	FF024.jpg
240.748529600038	3.05077169998549	decision	3.05003959999885	right	F	FF025.jpg	FF026.jpg
244.348289000045	1.01684989995556	win	NaN	n/a	n/a	FF025.jpg	FF026.jpg
249.231903800042	3.00200340000447	decision	2.28353690000949	left	F	FF027.jpg	FF028.jpg
252.78189100005	1.0164867999847	loss	NaN	n/a	n/a	FF027.jpg	FF028.jpg
255.565191000002	3.00023669999791	decision	2.2830756000476	right	M	MF033.jpg	MF034.jpg
259.115164100018	1.01654979999876	loss	NaN	n/a	n/a	MF033.jpg	MF034.jpg
261.898556200031	3.00204739999026	decision	1.03273989999434	left	M	MF035.jpg	MF036.jpg
265.448617800022	1.01654149999376	loss	NaN	n/a	n/a	MF035.jpg	MF036.jpg
268.231936099997	3.00125910004135	decision	1.28222950000782	left	M	MF037.jpg	MF038.jpg
271.781831900007	1.01659230003133	win	NaN	n/a	n/a	MF037.jpg	MF038.jpg
278.765407500032	3.00160550000146	decision	2.28256169997621	right	F	FF029.jpg	FF030.jpg
282.315066700045	1.00025270000333	loss	NaN	n/a	n/a	FF029.jpg	FF030.jpg
285.081639700045	3.00118009996368	decision	1.28394130000379	left	F	FF031.jpg	FF032.jpg
288.631744400016	1.01665499998489	loss	NaN	n/a	n/a	FF031.jpg	FF032.jpg
293.515234899998	3.00087640003767	decision	1.28327840002021	right	F	FF033.jpg	FF034.jpg
297.065033700026	1.01666470000055	win	NaN	n/a	n/a	FF033.jpg	FF034.jpg
304.048512400012	3.00105270004133	decision	1.03461189998779	right	M	MF039.jpg	MF040.jpg
307.598342700046	1.00024379999377	loss	NaN	n/a	n/a	MF039.jpg	MF040.jpg
314.565399300016	3.00188520003576	decision	1.03259429999162	left	F	FF035.jpg	FF036.jpg
318.115018400014	1.01660650002304	win	NaN	n/a	n/a	FF035.jpg	FF036.jpg
320.89846940001	3.0002894999925	decision	1.28300200001104	right	F	FF037.jpg	FF038.jpg
324.448393900006	1.01634580001701	loss	NaN	n/a	n/a	FF037.jpg	FF038.jpg
327.231748800026	3.00133990001632	decision	1.03376419999404	left	F	FF039.jpg	FF040.jpg
330.781654899998	1.0000453000539	loss	NaN	n/a	n/a	FF039.jpg	FF040.jpg
