onset	duration	trial_type	rt	resp	gender	image_left	image_right
0.643052100029308	3.00049409997882	decision	2.03324449999491	right	M	MF001.jpg	MF002.jpg
4.19338690000586	1.01642190001439	win	NaN	n/a	n/a	MF001.jpg	MF002.jpg
11.1934350000229	3.00100589997601	decision	2.29871069994988	left	M	MF003.jpg	MF004.jpg
14.7434499000083	1.01662499998929	loss	NaN	n/a	n/a	MF003.jpg	MF004.jpg
17.526863600011	3.00028689997271	decision	2.30023860000074	left	M	MF005.jpg	MF006.jpg
21.0766366000171	1.00013329996727	win	NaN	n/a	n/a	MF005.jpg	MF006.jpg
23.8435732999933	2.99993739998899	decision	2.03404220001539	right	F	FF001.jpg	FF002.jpg
27.3935442999937	1.01661880000029	win	NaN	n/a	n/a	FF001.jpg	FF002.jpg
32.2769578999723	3.00105990003794	decision	2.29893190000439	right	F	FF003.jpg	FF004.jpg
35.8267906000256	1.00016319996212	loss	NaN	n/a	n/a	FF003.jpg	FF004.jpg
42.7935401999857	3.00049130001571	decision	2.03342500003055	left	M	MF007.jpg	MF008.jpg
46.3434881999856	1.00023890001466	loss	NaN	n/a	n/a	MF007.jpg	MF008.jpg
51.2104915999807	3.00105580000672	decision	2.29936080001062	right	M	MF009.jpg	MF010.jpg
54.7605139000225	1.01654619997134	win	NaN	n/a	n/a	MF009.jpg	MF010.jpg
59.6440375000238	3.00079489999916	decision	2.0323126000003	left	F	FF005.jpg	FF006.jpg
63.1936977999867	1.00008710002294	loss	NaN	n/a	n/a	FF005.jpg	FF006.jpg
65.9604678999749	3.00067630002741	decision	2.03359679999994	right	F	FF007.jpg	FF008.jpg
69.5105987000279	1.01677819999168	win	NaN	n/a	n/a	FF007.jpg	FF008.jpg
72.2940287999809	3.00144030002411	decision	2.54991860000882	right	F	FF009.jpg	FF010.jpg
75.8437469999772	1.00021580001339	win	NaN	n/a	n/a	FF009.jpg	FF010.jpg
78.6102926000021	3.00056269997731	decision	2.80025349999778	right	F	FF011.jpg	FF012.jpg
82.1604424000252	1.0001762000029	loss	NaN	n/a	n/a	FF011.jpg	FF012.jpg
87.0275680000195	3.00010849995306	decision	2.3000606999849	right	M	MF011.jpg	MF012.jpg
90.577433599974	1.01669630000833	loss	NaN	n/a	n/a	MF011.jpg	MF012.jpg
93.3608560999855	3.00164030003361	decision	2.5489372999873	left	M	MF013.jpg	MF014.jpg
96.910727599985	1.01656429999275	win	NaN	n/a	n/a	MF013.jpg	MF014.jpg
103.89401400002	3.00138380000135	decision	2.03379580000183	left	M	MF015.jpg	MF016.jpg
107.444027499994	1.00025969999842	win	NaN	n/a	n/a	MF015.jpg	MF016.jpg
110.210609600006	3.00155709998216	decision	2.28477329999441	left	F	FF013.jpg	FF014.jpg
113.760962400003	1.01634249999188	win	NaN	n/a	n/a	FF013.jpg	FF014.jpg
120.74398780003	3.00110119994497	decision	2.03456339996774	right	M	MF017.jpg	MF018.jpg
124.294712600007	1.01617199997418	win	NaN	n/a	n/a	MF017.jpg	MF018.jpg
129.177890599996	3.00094930001069	decision	2.29962080001133	right	F	FF015.jpg	FF016.jpg
132.727996799978	1.01620130002266	win	NaN	n/a	n/a	FF015.jpg	FF016.jpg
137.611189600022	3.00041489995783	decision	2.05101809999906	right	M	MF019.jpg	MF020.jpg
141.160966299998	1.00000419997377	win	NaN	n/a	n/a	MF019.jpg	MF020.jpg
146.027983099979	3.00170389999403	decision	1.78375980001874	left	F	FF017.jpg	FF018.jpg
149.577743000002	1.00017299997853	win	NaN	n/a	n/a	FF017.jpg	FF018.jpg
162.844459199987	3.00023030000739	decision	2.28514749999158	left	M	MF021.jpg	MF022.jpg
166.394709500019	1.0000388000044	loss	NaN	n/a	n/a	MF021.jpg	MF022.jpg
173.361564100021	3.00120030000107	decision	1.78302179998718	right	M	MF023.jpg	MF024.jpg
176.911263499991	1.01695339998696	win	NaN	n/a	n/a	MF023.jpg	MF024.jpg
183.8949288	3.00049930001842	decision	1.53334600001108	left	M	MF025.jpg	MF026.jpg
187.444791799993	1.01684950001072	loss	NaN	n/a	n/a	MF025.jpg	MF026.jpg
192.328417300014	3.0002167999628	decision	2.03416719997767	right	M	MF027.jpg	MF028.jpg
195.87810859998	1.00002040003892	loss	NaN	n/a	n/a	MF027.jpg	MF028.jpg
198.645572500012	3.00067869998747	decision	2.29841459996533	left	F	FF019.jpg	FF020.jpg
202.195094200026	1.016393399972	loss	NaN	n/a	n/a	FF019.jpg	FF020.jpg
204.978270000021	3.00111269997433	decision	2.03390589996707	right	F	FF021.jpg	FF022.jpg
208.528501400026	1.00000099994941	win	NaN	n/a	n/a	FF021.jpg	FF022.jpg
215.495004799974	3.00034790002974	decision	2.54926220001653	left	M	MF029.jpg	MF030.jpg
219.045231800003	1.01667139999336	loss	NaN	n/a	n/a	MF029.jpg	MF030.jpg
226.028487699979	3.00086740002735	decision	2.5502206000383	left	M	MF031.jpg	MF032.jpg
229.578763999976	1.01629729999695	win	NaN	n/a	n/a	MF031.jpg	MF032.jpg
234.461849300016	3.00097170000663	decision	2.30062009999529	left	F	FF023.jpg	FF024.jpg
238.011948600004	1.01650560001144	loss	NaN	n/a	n/a	FF023.jpg	FF024.jpg
240.795449100027	3.00158939999528	decision	2.54893449996598	left	F	FF025.jpg	FF026.jpg
244.345340600004	1.01674519997323	win	NaN	n/a	n/a	FF025.jpg	FF026.jpg
249.228917800006	3.00168440002017	decision	2.03499760001432	right	F	FF027.jpg	FF028.jpg
252.778846899979	1.01634770003147	loss	NaN	n/a	n/a	FF027.jpg	FF028.jpg
255.562294700008	3.00051729998086	decision	2.03324459999567	right	M	MF033.jpg	MF034.jpg
259.112121100014	1.00026860000798	loss	NaN	n/a	n/a	MF033.jpg	MF034.jpg
261.878624100005	3.00074689998291	decision	2.28544130001683	right	M	MF035.jpg	MF036.jpg
265.429030200001	1.0000251000165	loss	NaN	n/a	n/a	MF035.jpg	MF036.jpg
268.195209000027	3.00072989996988	decision	2.30087129998719	left	M	MF037.jpg	MF038.jpg
271.745672199992	1.01662340003531	win	NaN	n/a	n/a	MF037.jpg	MF038.jpg
278.728640599991	3.00031780003337	decision	2.30032159999246	left	F	FF029.jpg	FF030.jpg
282.278755399981	1.01666180003667	loss	NaN	n/a	n/a	FF029.jpg	FF030.jpg
285.062320300029	3.00089639995713	decision	2.03460289997747	right	F	FF031.jpg	FF032.jpg
288.61215250002	1.0001008999534	loss	NaN	n/a	n/a	FF031.jpg	FF032.jpg
293.479005399975	3.00075140001718	decision	2.30000879999716	right	F	FF033.jpg	FF034.jpg
297.029345999996	1.01632910000626	win	NaN	n/a	n/a	FF033.jpg	FF034.jpg
304.012372999976	3.00125260005007	decision	2.30031880002934	left	M	MF039.jpg	MF040.jpg
307.562497899984	1.00012330000754	loss	NaN	n/a	n/a	MF039.jpg	MF040.jpg
314.529255700007	3.00151620001998	decision	2.28499289997853	right	F	FF035.jpg	FF036.jpg
318.079386199999	1.00003469997318	win	NaN	n/a	n/a	FF035.jpg	FF036.jpg
320.846184899972	3.00155890005408	decision	2.79956760001369	left	F	FF037.jpg	FF038.jpg
324.395935499982	1.0167290000245	loss	NaN	n/a	n/a	FF037.jpg	FF038.jpg
327.179536600015	3.00069590000203	decision	2.03377549996367	right	F	FF039.jpg	FF040.jpg
330.729137499991	1.0000039000297	loss	NaN	n/a	n/a	FF039.jpg	FF040.jpg
