onset	duration	trial_type	rt	resp	gender	image_left	image_right
0.60586449992843	3.0012851000065	decision	1.78368190000765	left	D	DD017.jpg	DD018.jpg
4.15607909997925	1.01645640004426	loss	NaN	n/a	n/a	DD017.jpg	DD018.jpg
11.1226728999754	3.00186640000902	decision	2.28284650004935	left	D	DD035.jpg	DD036.jpg
14.6727190000238	1.01666309998836	win	NaN	n/a	n/a	DD035.jpg	DD036.jpg
21.6228444000008	3.00177029997576	decision	1.7835484999232	right	D	DD021.jpg	DD022.jpg
25.173391600023	1.00020159990527	loss	NaN	n/a	n/a	DD021.jpg	DD022.jpg
32.0896415999159	3.00194080010988	decision	2.03288990003057	left	S	SD025.jpg	SD026.jpg
35.639496400021	1.00001379998866	loss	NaN	n/a	n/a	SD025.jpg	SD026.jpg
38.3731056000106	3.00078429991845	decision	1.78240409994032	right	S	SD027.jpg	SD028.jpg
41.9230438999366	1.00002809998114	loss	NaN	n/a	n/a	SD027.jpg	SD028.jpg
44.6398488000268	3.00157779990695	decision	2.53461619990412	left	S	SD023.jpg	SD024.jpg
48.1897396999411	1.00003490003292	win	NaN	n/a	n/a	SD023.jpg	SD024.jpg
50.9231727999868	3.00158769998234	decision	1.78256800002418	right	D	DD037.jpg	DD038.jpg
54.4731751999352	1.01657490001526	win	NaN	n/a	n/a	DD037.jpg	DD038.jpg
59.3232386999298	3.00089740008116	decision	1.78230389999226	left	S	SD011.jpg	SD012.jpg
62.8731283999514	1.00039489998017	loss	NaN	n/a	n/a	SD011.jpg	SD012.jpg
67.7065793999936	3.00090709992219	decision	2.78313679993153	left	D	DD009.jpg	DD010.jpg
71.2569078999804	1.0001850000117	win	NaN	n/a	n/a	DD009.jpg	DD010.jpg
73.9901611999376	3.00106500007678	decision	2.28231889999006	right	D	DD027.jpg	DD028.jpg
77.540014200029	1.0003414999228	win	NaN	n/a	n/a	DD027.jpg	DD028.jpg
82.3901489999844	3.00180990004446	decision	1.53258879994974	right	D	DD015.jpg	DD016.jpg
85.9402503999881	1.00104939995799	loss	NaN	n/a	n/a	DD015.jpg	DD016.jpg
92.873479199945	3.00219869997818	decision	1.7837594000157	right	S	SD029.jpg	SD030.jpg
96.4236725999508	1.01651680003852	loss	NaN	n/a	n/a	SD029.jpg	SD030.jpg
101.257047799998	3.00178459996823	decision	1.78340499999467	left	S	SD015.jpg	SD016.jpg
104.806980499998	1.00051679997705	win	NaN	n/a	n/a	SD015.jpg	SD016.jpg
111.723836399964	3.00165740004741	decision	1.53283989999909	right	S	SD007.jpg	SD008.jpg
115.273731100024	1.01659539993852	win	NaN	n/a	n/a	SD007.jpg	SD008.jpg
120.123983199941	3.00071270007174	decision	1.78318760008551	right	S	SD017.jpg	SD018.jpg
123.673935899977	1.01652840001043	win	NaN	n/a	n/a	SD017.jpg	SD018.jpg
126.424289399991	3.00142029998824	decision	1.78217090002727	left	D	DD033.jpg	DD034.jpg
129.973922199919	1.00026430003345	win	NaN	n/a	n/a	DD033.jpg	DD034.jpg
132.707313199993	3.00120039994363	decision	1.78316260001156	right	D	DD007.jpg	DD008.jpg
136.257278300007	1.00017629994545	loss	NaN	n/a	n/a	DD007.jpg	DD008.jpg
138.974381099921	3.00099279999267	decision	1.5322350000497	left	D	DD023.jpg	DD024.jpg
142.5240949	1.00004409998655	loss	NaN	n/a	n/a	DD023.jpg	DD024.jpg
155.757518899976	3.00136520003434	decision	1.78280980000272	right	S	SD009.jpg	SD010.jpg
159.307434999966	1.01696250005625	loss	NaN	n/a	n/a	SD009.jpg	SD010.jpg
164.157655999996	3.00126689998433	decision	1.53271509998012	left	D	DD001.jpg	DD002.jpg
167.707799299969	1.00012880004942	win	NaN	n/a	n/a	DD001.jpg	DD002.jpg
170.457678199979	3.00174139998853	decision	1.78253660001792	left	S	SD019.jpg	SD020.jpg
174.00804659992	1.01637070009019	loss	NaN	n/a	n/a	SD019.jpg	SD020.jpg
180.958019400015	3.00179809995461	decision	1.78358259995002	left	D	DD031.jpg	DD032.jpg
184.507694000029	1.0001145999413	loss	NaN	n/a	n/a	DD031.jpg	DD032.jpg
189.324820599984	3.00068719999399	decision	1.78318319993559	right	S	SD005.jpg	SD006.jpg
192.874842999969	1.01628370000981	win	NaN	n/a	n/a	SD005.jpg	SD006.jpg
195.641347799916	3.00141450006049	decision	1.78290610003751	right	D	DD019.jpg	DD020.jpg
199.191368200001	1.01686520001385	win	NaN	n/a	n/a	DD019.jpg	DD020.jpg
206.14158689999	3.00208729994483	decision	1.7838189000031	right	S	SD013.jpg	SD014.jpg
209.691409699968	1.01652189996094	loss	NaN	n/a	n/a	SD013.jpg	SD014.jpg
216.624834800023	3.0005820998922	decision	1.78311039996333	left	S	SD031.jpg	SD032.jpg
220.174843300018	1.0002811999293	loss	NaN	n/a	n/a	SD031.jpg	SD032.jpg
225.008260299917	3.00108120008372	decision	1.28372400009539	right	D	DD039.jpg	DD040.jpg
228.558303599944	1.0171551000094	loss	NaN	n/a	n/a	DD039.jpg	DD040.jpg
231.308530299924	3.00090600003023	decision	2.28242629999295	right	D	DD005.jpg	DD006.jpg
234.858259100001	1.00021530000959	loss	NaN	n/a	n/a	DD005.jpg	DD006.jpg
241.792139799916	3.00155450007878	decision	1.53234010003507	left	S	SD037.jpg	SD038.jpg
245.342067299993	1.016414099955	loss	NaN	n/a	n/a	SD037.jpg	SD038.jpg
248.092455799924	3.00083030003589	decision	1.28216070006602	right	S	SD039.jpg	SD040.jpg
251.641884299926	1.01661640009843	win	NaN	n/a	n/a	SD039.jpg	SD040.jpg
254.392008799943	3.00103980000131	decision	1.53325390000828	right	S	SD033.jpg	SD034.jpg
257.941892099916	1.00010689999908	loss	NaN	n/a	n/a	SD033.jpg	SD034.jpg
260.675272400025	3.00095969997346	decision	1.28325519990176	left	D	DD013.jpg	DD014.jpg
264.225281600025	1.01662229991052	win	NaN	n/a	n/a	DD013.jpg	DD014.jpg
269.058981599985	3.00134730001446	decision	1.53319390001707	right	S	SD001.jpg	SD002.jpg
272.608843000024	1.00014939997345	win	NaN	n/a	n/a	SD001.jpg	SD002.jpg
275.342113699997	3.00174530001823	decision	2.28365909995046	right	D	DD003.jpg	DD004.jpg
278.89194120001	1.00010870001279	win	NaN	n/a	n/a	DD003.jpg	DD004.jpg
283.70900589996	3.00146219995804	decision	1.78273780003656	left	S	SD003.jpg	SD004.jpg
287.259139199974	1.01721780002117	win	NaN	n/a	n/a	SD003.jpg	SD004.jpg
294.209018399939	3.00108140008524	decision	1.78311980003491	left	D	DD025.jpg	DD026.jpg
297.75895519997	1.00000090000685	win	NaN	n/a	n/a	DD025.jpg	DD026.jpg
304.69240639999	3.00153599993791	decision	1.28409690002445	right	S	SD035.jpg	SD036.jpg
308.242301799939	1.00121230003424	win	NaN	n/a	n/a	SD035.jpg	SD036.jpg
310.975768500008	3.00101529993117	decision	1.5324985999614	left	D	DD011.jpg	DD012.jpg
314.525808100007	1.00021550001111	loss	NaN	n/a	n/a	DD011.jpg	DD012.jpg
317.259184899973	3.00174710003193	decision	1.2824650000548	right	S	SD021.jpg	SD022.jpg
320.809174699942	1.01660179998726	win	NaN	n/a	n/a	SD021.jpg	SD022.jpg
325.659547799965	3.00205480004661	decision	1.53367649996653	right	D	DD029.jpg	DD030.jpg
329.209990300005	1.01599260000512	loss	NaN	n/a	n/a	DD029.jpg	DD030.jpg
