onset	duration	trial_type	rt	resp	gender	image_left	image_right
0.612274100072682	3.00097179994918	decision	1.78303859999869	right	D	DD017.jpg	DD018.jpg
4.16236960003152	1.01654059998691	loss	NaN	n/a	n/a	DD017.jpg	DD018.jpg
11.128984500072	3.00116659991909	decision	2.28280149993952	left	D	DD035.jpg	DD036.jpg
14.6789486999623	1.00002000003587	win	NaN	n/a	n/a	DD035.jpg	DD036.jpg
21.613495400059	3.0012578999158	decision	1.28149129997473	left	D	DD021.jpg	DD022.jpg
25.1625915999757	1.01654740003869	loss	NaN	n/a	n/a	DD021.jpg	DD022.jpg
32.0957977999933	3.00093780003954	decision	1.2833964000456	left	S	SD025.jpg	SD026.jpg
35.645698599983	1.00000640004873	loss	NaN	n/a	n/a	SD025.jpg	SD026.jpg
38.3792252000421	3.00164569995832	decision	1.53263309993781	left	S	SD027.jpg	SD028.jpg
41.9293188999873	1.0165360000683	loss	NaN	n/a	n/a	SD027.jpg	SD028.jpg
44.6626001000404	3.00143920001574	decision	1.78302440000698	left	S	SD023.jpg	SD024.jpg
48.212622800027	1.01675009995233	win	NaN	n/a	n/a	SD023.jpg	SD024.jpg
50.9627849999815	3.00095950008836	decision	1.53245350008365	left	D	DD037.jpg	DD038.jpg
54.5127545000287	1.01667889999226	win	NaN	n/a	n/a	DD037.jpg	DD038.jpg
59.3629427000415	3.0017349999398	decision	1.28347419993952	right	S	SD011.jpg	SD012.jpg
62.9130447000498	1.01643079996575	loss	NaN	n/a	n/a	SD011.jpg	SD012.jpg
67.7629908999661	3.00170220003929	decision	1.28268699999899	left	D	DD009.jpg	DD010.jpg
71.3130091000348	1.01649409998208	win	NaN	n/a	n/a	DD009.jpg	DD010.jpg
74.0463651000755	3.00109999999404	decision	1.53250269999262	right	D	DD027.jpg	DD028.jpg
77.5963187000016	1.00001149997115	win	NaN	n/a	n/a	DD027.jpg	DD028.jpg
82.4464914000127	3.00108930002898	decision	1.78322840004694	right	D	DD015.jpg	DD016.jpg
85.9963789000176	1.01671050000004	loss	NaN	n/a	n/a	DD015.jpg	DD016.jpg
92.946344200056	3.00138889998198	decision	1.78239239996765	right	S	SD029.jpg	SD030.jpg
96.4965500000399	1.01657700003125	loss	NaN	n/a	n/a	SD029.jpg	SD030.jpg
101.330381100066	3.00225459993817	decision	1.28277469996829	left	S	SD015.jpg	SD016.jpg
104.879972000024	1.01653050002642	win	NaN	n/a	n/a	SD015.jpg	SD016.jpg
111.813317700056	3.00131029996555	decision	1.53278459992725	left	S	SD007.jpg	SD008.jpg
115.363414400024	1.01663219998591	win	NaN	n/a	n/a	SD007.jpg	SD008.jpg
120.213291299995	3.00142580003012	decision	1.78330880007707	right	S	SD017.jpg	SD018.jpg
123.763484099996	1.01665880007204	win	NaN	n/a	n/a	SD017.jpg	SD018.jpg
126.513527499977	3.00207230006345	decision	1.78299600002356	left	D	DD033.jpg	DD034.jpg
130.063366100076	1.00003159989137	win	NaN	n/a	n/a	DD033.jpg	DD034.jpg
132.79695540003	3.0015190000413	decision	1.78249130002223	left	D	DD007.jpg	DD008.jpg
136.34687410004	1.01671769993845	loss	NaN	n/a	n/a	DD007.jpg	DD008.jpg
139.080311199999	3.00116700003855	decision	2.03302490001079	left	D	DD023.jpg	DD024.jpg
142.631095999968	1.01609730010387	loss	NaN	n/a	n/a	DD023.jpg	DD024.jpg
155.880472399993	3.0006119000027	decision	2.03302520001307	left	S	SD009.jpg	SD010.jpg
159.430567100062	1.01643620000686	loss	NaN	n/a	n/a	SD009.jpg	SD010.jpg
164.263904600055	3.00112889998127	decision	1.2835973999463	right	D	DD001.jpg	DD002.jpg
167.813936299994	1.00002919998951	win	NaN	n/a	n/a	DD001.jpg	DD002.jpg
170.564252300072	3.00132019992452	decision	1.53227239998523	left	S	SD019.jpg	SD020.jpg
174.113978500012	1.000023300061	loss	NaN	n/a	n/a	SD019.jpg	SD020.jpg
181.047589699971	3.00252380000893	decision	1.53386880003382	left	D	DD031.jpg	DD032.jpg
184.597336300067	1.00000439991709	loss	NaN	n/a	n/a	DD031.jpg	DD032.jpg
189.414169900003	3.00129939999897	decision	1.53322310000658	left	S	SD005.jpg	SD006.jpg
192.964234100073	1.01678789989091	win	NaN	n/a	n/a	SD005.jpg	SD006.jpg
195.730966600007	3.00054489995819	decision	2.03332930000033	right	D	DD019.jpg	DD020.jpg
199.280922300066	1.01662969996687	win	NaN	n/a	n/a	DD019.jpg	DD020.jpg
206.214309300063	3.0013781999005	decision	1.78312689997256	left	S	SD013.jpg	SD014.jpg
209.764245399972	1.01666780002415	loss	NaN	n/a	n/a	SD013.jpg	SD014.jpg
216.697923599975	3.00137569999788	decision	1.53308379999362	left	S	SD031.jpg	SD032.jpg
220.24766610004	1.00012109999079	loss	NaN	n/a	n/a	SD031.jpg	SD032.jpg
225.08131420007	3.00101389992051	decision	1.53302249999251	left	D	DD039.jpg	DD040.jpg
228.631051999982	1.00005700008478	loss	NaN	n/a	n/a	DD039.jpg	DD040.jpg
231.364466400002	3.00178529997356	decision	2.53283739998005	right	D	DD005.jpg	DD006.jpg
234.914511200041	1.016659899964	loss	NaN	n/a	n/a	DD005.jpg	DD006.jpg
241.864929400035	3.00155319995247	decision	1.78348199999891	left	S	SD037.jpg	SD038.jpg
245.414770100033	1.00003729993477	loss	NaN	n/a	n/a	SD037.jpg	SD038.jpg
248.148467399995	3.00091479998082	decision	1.28209490003064	left	S	SD039.jpg	SD040.jpg
251.698133900063	1.00002389994916	win	NaN	n/a	n/a	SD039.jpg	SD040.jpg
254.431553300004	3.00145590002649	decision	1.7828787000617	left	S	SD033.jpg	SD034.jpg
257.981487600016	1.01662290003151	loss	NaN	n/a	n/a	SD033.jpg	SD034.jpg
260.731622099993	3.00169669999741	decision	1.53268140007276	right	D	DD013.jpg	DD014.jpg
264.281483500032	1.01664859999437	win	NaN	n/a	n/a	DD013.jpg	DD014.jpg
269.115130700055	3.00026849994902	decision	1.78226519993041	right	S	SD001.jpg	SD002.jpg
272.665089000016	1.0002300000051	win	NaN	n/a	n/a	SD001.jpg	SD002.jpg
275.398496899987	3.00166820001323	decision	1.78370240004733	left	D	DD003.jpg	DD004.jpg
278.948389800033	1.01656429993454	win	NaN	n/a	n/a	DD003.jpg	DD004.jpg
283.782040499966	3.0005679000169	decision	1.53331710002385	left	S	SD003.jpg	SD004.jpg
287.331833900069	1.00001199997496	win	NaN	n/a	n/a	SD003.jpg	SD004.jpg
294.248535900027	3.00202450004872	decision	1.53371720004361	left	D	DD025.jpg	DD026.jpg
297.798684700043	1.01640129997395	win	NaN	n/a	n/a	DD025.jpg	DD026.jpg
304.748568700044	3.00181169994175	decision	1.53355669998564	left	S	SD035.jpg	SD036.jpg
308.298670600052	1.00015089998487	win	NaN	n/a	n/a	SD035.jpg	SD036.jpg
311.032147099962	3.00209100008942	decision	1.53299420000985	left	D	DD011.jpg	DD012.jpg
314.581983800046	1.01674779993482	loss	NaN	n/a	n/a	DD011.jpg	DD012.jpg
317.332236399991	3.00094210007228	decision	1.53241600003093	left	S	SD021.jpg	SD022.jpg
320.881940099993	1.00014760007616	win	NaN	n/a	n/a	SD021.jpg	SD022.jpg
325.715565599967	3.00163370009977	decision	1.28351350000594	left	D	DD029.jpg	DD030.jpg
329.265438799979	1.01665170001797	loss	NaN	n/a	n/a	DD029.jpg	DD030.jpg
