onset	duration	trial_type	rt	resp	gender	image_left	image_right
0.65487359999679	3.00135790021159	decision	1.78274600021541	right	M	MF001.jpg	MF002.jpg
4.20487750018947	1.01662639994174	win	NaN	n/a	n/a	MF001.jpg	MF002.jpg
11.1883522002026	3.00131660001352	decision	2.54897429980338	right	M	MF003.jpg	MF004.jpg
14.7381221000105	1.01651970017701	loss	NaN	n/a	n/a	MF003.jpg	MF004.jpg
17.521428400185	3.00024489988573	decision	2.03319839993492	right	M	MF005.jpg	MF006.jpg
21.0715493001044	1.01656890008599	win	NaN	n/a	n/a	MF005.jpg	MF006.jpg
23.8550611000974	3.00060039991513	decision	2.03313130000606	left	F	FF001.jpg	FF002.jpg
27.4051686001476	1.01653729984537	win	NaN	n/a	n/a	FF001.jpg	FF002.jpg
32.2886254000477	3.00132880010642	decision	2.03396830009297	left	F	FF003.jpg	FF004.jpg
35.8381035001948	1.00002959999256	loss	NaN	n/a	n/a	FF003.jpg	FF004.jpg
42.8052720001433	3.00068469997495	decision	2.2833378999494	left	M	MF007.jpg	MF008.jpg
46.3552958001383	1.01651049987413	loss	NaN	n/a	n/a	MF007.jpg	MF008.jpg
51.2384456000291	3.00048890011385	decision	2.03224309999496	right	M	MF009.jpg	MF010.jpg
54.7884643001016	1.01676069991663	win	NaN	n/a	n/a	MF009.jpg	MF010.jpg
59.6716546001844	3.00083549995907	decision	2.03319719992578	right	F	FF005.jpg	FF006.jpg
63.2219817000441	1.01643810002133	loss	NaN	n/a	n/a	FF005.jpg	FF006.jpg
66.0052331001498	3.00055960007012	decision	1.78312759986147	left	F	FF007.jpg	FF008.jpg
69.5555012000259	1.01638040016405	win	NaN	n/a	n/a	FF007.jpg	FF008.jpg
72.3385390001349	3.00083560007624	decision	2.54998559993692	left	F	FF009.jpg	FF010.jpg
75.888707500184	1.01680359989405	win	NaN	n/a	n/a	FF009.jpg	FF010.jpg
78.6719565000385	3.00058120000176	decision	1.53355620009825	right	F	FF011.jpg	FF012.jpg
82.2219969001599	1.01653739996254	loss	NaN	n/a	n/a	FF011.jpg	FF012.jpg
87.105297600152	3.00106719997711	decision	1.7840203999076	left	M	MF011.jpg	MF012.jpg
90.6552739001345	1.01682700007223	loss	NaN	n/a	n/a	MF011.jpg	MF012.jpg
93.4387645001989	3.0009486998897	decision	1.53302899980918	left	M	MF013.jpg	MF014.jpg
96.9887221001554	1.01674650004134	win	NaN	n/a	n/a	MF013.jpg	MF014.jpg
103.972154400079	3.00054410006851	decision	1.78254820010625	right	M	MF015.jpg	MF016.jpg
107.522140100133	1.00006769993342	win	NaN	n/a	n/a	MF015.jpg	MF016.jpg
110.289025700185	3.0004203999415	decision	1.78300329996273	left	F	FF013.jpg	FF014.jpg
113.838918900117	1.01657949993387	win	NaN	n/a	n/a	FF013.jpg	FF014.jpg
120.822349000024	3.00020230002701	decision	2.54902090015821	right	M	MF017.jpg	MF018.jpg
124.372283100151	1.01660940004513	win	NaN	n/a	n/a	MF017.jpg	MF018.jpg
129.255839399993	3.00030710012652	decision	2.03318880009465	left	F	FF015.jpg	FF016.jpg
132.805793900043	1.0168761999812	win	NaN	n/a	n/a	FF015.jpg	FF016.jpg
137.689154800028	3.00030050007626	decision	2.28430599998683	left	M	MF019.jpg	MF020.jpg
141.238998100162	1.00039259996265	win	NaN	n/a	n/a	MF019.jpg	MF020.jpg
146.106168900151	3.00074260006659	decision	2.0330854000058	right	F	FF017.jpg	FF018.jpg
149.655845400179	1.00023290002719	win	NaN	n/a	n/a	FF017.jpg	FF018.jpg
162.92271449999	3.00085010007024	decision	2.03358730021864	left	M	MF021.jpg	MF022.jpg
166.472632199991	1.00014610006474	loss	NaN	n/a	n/a	MF021.jpg	MF022.jpg
173.439747900004	3.00008160015568	decision	2.54911900009029	right	M	MF023.jpg	MF024.jpg
176.9897107	1.01638110005297	win	NaN	n/a	n/a	MF023.jpg	MF024.jpg
183.972895300016	3.00110340001993	decision	2.79988880013116	left	M	MF025.jpg	MF026.jpg
187.522870799992	1.01671440014616	loss	NaN	n/a	n/a	MF025.jpg	MF026.jpg
192.406151300063	3.00085890013725	decision	1.53326410008594	right	M	MF027.jpg	MF028.jpg
195.956222400069	1.00008830009028	loss	NaN	n/a	n/a	MF027.jpg	MF028.jpg
198.72299720021	3.00080479984172	decision	1.53325619990937	left	F	FF019.jpg	FF020.jpg
202.272836000193	1.01675599999726	loss	NaN	n/a	n/a	FF019.jpg	FF020.jpg
205.056647800142	3.00057729985565	decision	2.28436769987457	right	F	FF021.jpg	FF022.jpg
208.606505000032	1.01648170012049	win	NaN	n/a	n/a	FF021.jpg	FF022.jpg
215.589773100102	3.00126429996453	decision	2.54972980008461	left	M	MF029.jpg	MF030.jpg
219.13978460012	1.01706580002792	loss	NaN	n/a	n/a	MF029.jpg	MF030.jpg
226.139932600083	3.00037220004015	decision	1.53312649996951	right	M	MF031.jpg	MF032.jpg
229.689882600214	1.00027979980223	win	NaN	n/a	n/a	MF031.jpg	MF032.jpg
234.556609700201	3.00031439983286	decision	2.54928969987668	right	F	FF023.jpg	FF024.jpg
238.106886400143	1.01642049988732	loss	NaN	n/a	n/a	FF023.jpg	FF024.jpg
240.890000300016	3.00074900011532	decision	1.53272200003266	left	F	FF025.jpg	FF026.jpg
244.439925200073	1.00015470013022	win	NaN	n/a	n/a	FF025.jpg	FF026.jpg
249.30683450005	3.00137730012648	decision	1.78357270010747	right	F	FF027.jpg	FF028.jpg
252.856782300165	1.0002120998688	loss	NaN	n/a	n/a	FF027.jpg	FF028.jpg
255.623700900003	3.00032190000638	decision	1.78223830019124	right	M	MF033.jpg	MF034.jpg
259.173591000028	1.01673130015843	loss	NaN	n/a	n/a	MF033.jpg	MF034.jpg
261.956879400183	3.00069549982436	decision	1.28347699996084	right	M	MF035.jpg	MF036.jpg
265.507078499999	1.01674590003677	loss	NaN	n/a	n/a	MF035.jpg	MF036.jpg
268.29022880015	3.00187569996342	decision	1.78297589998692	right	M	MF037.jpg	MF038.jpg
271.840510600014	1.01644890010357	win	NaN	n/a	n/a	MF037.jpg	MF038.jpg
278.823806000175	3.00101349991746	decision	2.28542199986987	left	F	FF029.jpg	FF030.jpg
282.373608200112	1.00005499995314	loss	NaN	n/a	n/a	FF029.jpg	FF030.jpg
285.1404984002	3.00139279989526	decision	2.03284509992227	right	F	FF031.jpg	FF032.jpg
288.690406600013	1.01666860003024	loss	NaN	n/a	n/a	FF031.jpg	FF032.jpg
293.573853600072	3.00080620008521	decision	1.78245800011791	left	F	FF033.jpg	FF034.jpg
297.123766400153	1.01664689998142	win	NaN	n/a	n/a	FF033.jpg	FF034.jpg
304.10726690013	3.00134339998476	decision	2.03381219995208	right	M	MF039.jpg	MF040.jpg
307.657197900116	1.01712409988977	loss	NaN	n/a	n/a	MF039.jpg	MF040.jpg
314.640980800148	3.00082749989815	decision	1.28209099988453	left	F	FF035.jpg	FF036.jpg
318.190637900028	1.01671960018575	win	NaN	n/a	n/a	FF035.jpg	FF036.jpg
320.974212900037	3.00091159995645	decision	1.53313620015979	left	F	FF037.jpg	FF038.jpg
324.524285200052	1.01636940008029	loss	NaN	n/a	n/a	FF037.jpg	FF038.jpg
327.307542800205	3.0016293998342	decision	1.78296539979056	left	F	FF039.jpg	FF040.jpg
330.857692300109	1.0163734999951	loss	NaN	n/a	n/a	FF039.jpg	FF040.jpg
