onset	duration	trial_type	rt	resp	gender	image_left	image_right
0.59692520002136	3.03800729999784	decision-missed	n/a	n/a	S	SD001.jpg	SD002.jpg
4.18034690001514	1.00017630000366	win	n/a	n/a	n/a	SD001.jpg	SD002.jpg
11.1135648000054	3.03915339999367	decision-missed	n/a	n/a	S	SD003.jpg	SD004.jpg
14.6969813000178	1.00006559997564	loss	n/a	n/a	n/a	SD003.jpg	SD004.jpg
17.4137507000123	3.00061759998789	decision	1.2830198000301607	right	S	SD005.jpg	SD006.jpg
20.964042800013	1.01622280001175	win	n/a	n/a	n/a	SD005.jpg	SD006.jpg
23.7138314000331	3.00179869995918	decision	1.0337222999660298	left	D	DD001.jpg	DD002.jpg
27.2638902000035	1.00004130002344	win	n/a	n/a	n/a	DD001.jpg	DD002.jpg
32.0972685000161	3.00135450001108	decision	1.2830154999974184	right	D	DD003.jpg	DD004.jpg
35.6472829999984	1.0000238000066	loss	n/a	n/a	n/a	DD003.jpg	DD004.jpg
42.564170800033	3.00135059998138	decision	1.7825701999827288	left	S	SD007.jpg	SD008.jpg
46.1140631000162	1.01664599997457	loss	n/a	n/a	n/a	SD007.jpg	SD008.jpg
50.9645065999939	3.00092950003454	decision	1.7820964000420645	right	S	SD009.jpg	SD010.jpg
54.5142074000323	1.00000659999205	win	n/a	n/a	n/a	SD009.jpg	SD010.jpg
59.3475502000074	3.00114370003575	decision	2.0330325000104494	left	D	DD005.jpg	DD006.jpg
62.8975817000028	1.01663520000875	loss	n/a	n/a	n/a	DD005.jpg	DD006.jpg
65.647839799989	3.00180290004937	decision	1.2828377000405453	right	D	DD007.jpg	DD008.jpg
69.1977253000368	1.00013639999088	win	n/a	n/a	n/a	DD007.jpg	DD008.jpg
71.9314231000026	3.00171670003328	decision	1.2825365000171587	left	D	DD009.jpg	DD010.jpg
75.4812249999959	1.01635550003266	win	n/a	n/a	n/a	DD009.jpg	DD010.jpg
78.214455600013	3.00171420001425	decision	2.0332540000090376	left	D	DD011.jpg	DD012.jpg
81.764467400033	1.00017779995687	loss	n/a	n/a	n/a	DD011.jpg	DD012.jpg
86.5980437000399	3.03693820000626	decision-missed	n/a	n/a	S	SD011.jpg	SD012.jpg
90.1815352000413	1.00052750000032	loss	n/a	n/a	n/a	SD011.jpg	SD012.jpg
92.8978717999998	3.00080390000949	decision	1.5323388000251725	right	S	SD013.jpg	SD014.jpg
96.4478926000302	1.01686189998873	win	n/a	n/a	n/a	SD013.jpg	SD014.jpg
103.39806050004	3.0014247999643	decision	1.2825704999850132	left	S	SD015.jpg	SD016.jpg
106.948035900015	1.01655250001932	win	n/a	n/a	n/a	SD015.jpg	SD016.jpg
109.698278299998	3.00081260001753	decision	1.533319600042887	left	D	DD013.jpg	DD014.jpg
113.248410900007	1.01635819999501	win	n/a	n/a	n/a	DD013.jpg	DD014.jpg
120.198258700024	3.00121929997113	decision	2.033231600013096	right	S	SD017.jpg	SD018.jpg
123.748158900009	1.00004620000254	win	n/a	n/a	n/a	SD017.jpg	SD018.jpg
128.598403999989	3.00120160001097	decision	1.2831205000402406	left	D	DD015.jpg	DD016.jpg
132.148514	1.00010010000551	win	n/a	n/a	n/a	DD015.jpg	DD016.jpg
136.998335300013	3.00103590002982	decision	1.2825462999753654	left	S	SD019.jpg	SD020.jpg
140.548400400032	1.00011419999646	win	n/a	n/a	n/a	SD019.jpg	SD020.jpg
145.365458499989	3.0010242999997	decision	1.282660900033079	left	D	DD017.jpg	DD018.jpg
148.915137800039	1.00001729995711	win	n/a	n/a	n/a	DD017.jpg	DD018.jpg
162.148587800039	3.00241580000147	decision	1.2828971999697387	left	S	SD021.jpg	SD022.jpg
165.698745100002	1.01657460001297	loss	n/a	n/a	n/a	SD021.jpg	SD022.jpg
172.632779900043	3.00187589996494	decision	1.7816617999924347	left	S	SD023.jpg	SD024.jpg
176.182186299993	1.00006040005246	win	n/a	n/a	n/a	SD023.jpg	SD024.jpg
183.098995900014	3.00102949998109	decision	1.5334633000311442	left	S	SD025.jpg	SD026.jpg
186.648942800006	1.01651470002253	loss	n/a	n/a	n/a	SD025.jpg	SD026.jpg
191.500083199993	3.00135820003925	decision	1.782225200033281	right	S	SD027.jpg	SD028.jpg
195.049069900007	1.01676610001596	loss	n/a	n/a	n/a	SD027.jpg	SD028.jpg
197.815700300038	3.03568569995696	decision-missed	n/a	n/a	D	DD019.jpg	DD020.jpg
201.399047100043	1.00009349995526	loss	n/a	n/a	n/a	DD019.jpg	DD020.jpg
204.132521499996	3.0013428000384	decision	2.2838251999928616	left	D	DD021.jpg	DD022.jpg
207.682341000007	1.00004130002344	win	n/a	n/a	n/a	DD021.jpg	DD022.jpg
214.61621300003	3.00186019996181	decision	1.7823336999863386	right	S	SD029.jpg	SD030.jpg
218.165882200003	1.0000127000385	loss	n/a	n/a	n/a	SD029.jpg	SD030.jpg
225.082622300019	3.03832310001599	decision-missed	n/a	n/a	S	SD031.jpg	SD032.jpg
228.666041799996	1.01662230002694	win	n/a	n/a	n/a	SD031.jpg	SD032.jpg
233.516043999989	3.00234250002541	decision	1.2829421000205912	right	D	DD023.jpg	DD024.jpg
237.066065800027	1.00001119996887	loss	n/a	n/a	n/a	DD023.jpg	DD024.jpg
239.783107700001	3.00095970003167	decision	1.2833790000295267	left	D	DD025.jpg	DD026.jpg
243.332734600001	1.00018830003683	win	n/a	n/a	n/a	DD025.jpg	DD026.jpg
248.149599900004	3.03775960003259	decision-missed	n/a	n/a	D	DD027.jpg	DD028.jpg
251.73314820003	1.0009507999639	loss	n/a	n/a	n/a	DD027.jpg	DD028.jpg
254.466279999993	3.04019020003034	decision-missed	n/a	n/a	S	SD033.jpg	SD034.jpg
258.049947499996	1.01623150001979	loss	n/a	n/a	n/a	SD033.jpg	SD034.jpg
260.799689900014	3.00151680002455	decision	1.032672100001946	left	S	SD035.jpg	SD036.jpg
264.34973680001	1.01672529999632	loss	n/a	n/a	n/a	SD035.jpg	SD036.jpg
267.099896900007	3.00128680001944	decision	1.032695000001695	right	S	SD037.jpg	SD038.jpg
270.649775500002	1.00014200003352	win	n/a	n/a	n/a	SD037.jpg	SD038.jpg
277.5833002	3.00051460001851	decision	1.2830403000116348	left	D	DD029.jpg	DD030.jpg
281.133232599997	1.00012360000983	loss	n/a	n/a	n/a	DD029.jpg	DD030.jpg
283.866640400025	3.00141660001827	decision	1.2827772999880835	left	D	DD031.jpg	DD032.jpg
287.416546499997	1.00003270001616	loss	n/a	n/a	n/a	DD031.jpg	DD032.jpg
292.25020270003	3.00100280001061	decision	1.782184400013648	right	D	DD033.jpg	DD034.jpg
295.799990600033	1.00002179999137	win	n/a	n/a	n/a	DD033.jpg	DD034.jpg
302.73341570003	3.00120469997637	decision	1.5333744999952614	right	S	SD039.jpg	SD040.jpg
306.283425700036	1.00004849996185	loss	n/a	n/a	n/a	SD039.jpg	SD040.jpg
313.2343674	3.00091740000062	decision	1.2824623000342399	left	D	DD035.jpg	DD036.jpg
316.78356890002	1.00023780000629	win	n/a	n/a	n/a	DD035.jpg	DD036.jpg
319.51703789999	3.00131430005422	decision	1.0332135000498965	right	D	DD037.jpg	DD038.jpg
323.067085599992	1.00013800000306	loss	n/a	n/a	n/a	DD037.jpg	DD038.jpg
325.800469700014	3.00131030002376	decision	1.0344054999877699	left	D	DD039.jpg	DD040.jpg
329.350381200027	1.01662660000147	loss	n/a	n/a	n/a	DD039.jpg	DD040.jpg
