onset	duration	trial_type	rt	resp	gender	image_left	image_right
0.607027599999128	3.00242880000042	decision	1.53294060000007	right	D	DD017.jpg	DD018.jpg
4.15695489999962	1.01660839999931	loss	NaN	n/a	n/a	DD017.jpg	DD018.jpg
11.1236134999999	3.00091499999871	decision	2.53252780000003	left	D	DD035.jpg	DD036.jpg
14.6734514999989	1.00003500000093	win	NaN	n/a	n/a	DD035.jpg	DD036.jpg
21.6070153000001	3.00124139999934	decision	2.28259679999974	right	D	DD021.jpg	DD022.jpg
25.1572120000001	1.01648699999896	loss	NaN	n/a	n/a	DD021.jpg	DD022.jpg
32.0903039999994	3.0008942000004	decision	2.53245310000057	right	S	SD025.jpg	SD026.jpg
35.6401898000004	1.00006349999967	loss	NaN	n/a	n/a	SD025.jpg	SD026.jpg
38.3735524999993	3.00016590000087	decision	2.53525480000098	right	S	SD027.jpg	SD028.jpg
41.9235117999997	1.00012240000069	loss	NaN	n/a	n/a	SD027.jpg	SD028.jpg
44.6403086999999	3.00162569999884	decision	2.53324769999927	right	S	SD023.jpg	SD024.jpg
48.190231999999	1.0166846000011	win	NaN	n/a	n/a	SD023.jpg	SD024.jpg
50.9402942999986	3.00107900000148	decision	2.28323780000028	right	D	DD037.jpg	DD038.jpg
54.4902175999996	1.01666280000063	win	NaN	n/a	n/a	DD037.jpg	DD038.jpg
59.3404864999993	3.00225030000001	decision	1.7819741000003	left	S	SD011.jpg	SD012.jpg
62.8905345999992	1.01641419999942	loss	NaN	n/a	n/a	SD011.jpg	SD012.jpg
67.7236051999989	3.00125710000066	decision	2.03247470000133	left	D	DD009.jpg	DD010.jpg
71.2735696	1.00000559999899	win	NaN	n/a	n/a	DD009.jpg	DD010.jpg
73.9902057999989	3.00155670000095	decision	2.53421239999989	right	D	DD027.jpg	DD028.jpg
77.5402221999993	1.01657859999978	win	NaN	n/a	n/a	DD027.jpg	DD028.jpg
82.3902965999987	3.00107130000106	decision	2.7833595000011	right	D	DD015.jpg	DD016.jpg
85.9405138999991	1.01627480000025	loss	NaN	n/a	n/a	DD015.jpg	DD016.jpg
92.8901820999999	3.00168089999897	decision	2.79921709999871	right	S	SD029.jpg	SD030.jpg
96.4401705	1.00000120000004	loss	NaN	n/a	n/a	SD029.jpg	SD030.jpg
101.256647999999	3.00144190000174	decision	1.78364640000109	right	S	SD015.jpg	SD016.jpg
104.806791999999	1.01673579999988	win	NaN	n/a	n/a	SD015.jpg	SD016.jpg
111.740231899999	3.00192090000019	decision	1.78248340000027	right	S	SD007.jpg	SD008.jpg
115.290316999999	1.01671189999979	win	NaN	n/a	n/a	SD007.jpg	SD008.jpg
120.1238823	3.00101439999889	decision	2.03257419999863	right	S	SD017.jpg	SD018.jpg
123.673450799999	1.0000985000006	win	NaN	n/a	n/a	SD017.jpg	SD018.jpg
126.406992	3.00083259999883	decision	2.78533090000019	left	D	DD033.jpg	DD034.jpg
129.956761899999	1.01671420000093	win	NaN	n/a	n/a	DD033.jpg	DD034.jpg
132.7067881	3.00087299999905	decision	2.03325779999977	right	D	DD007.jpg	DD008.jpg
136.256763199999	1.01675679999971	loss	NaN	n/a	n/a	DD007.jpg	DD008.jpg
138.990156	3.00139469999885	decision	1.78398819999893	left	D	DD023.jpg	DD024.jpg
142.540160999999	1.01656580000054	loss	NaN	n/a	n/a	DD023.jpg	DD024.jpg
155.7901662	3.00215619999835	decision	1.53269659999933	right	S	SD009.jpg	SD010.jpg
159.340090099999	1.01688390000163	loss	NaN	n/a	n/a	SD009.jpg	SD010.jpg
164.1735811	3.00096049999956	decision	1.5323513000003	right	D	DD001.jpg	DD002.jpg
167.7234462	1.01654179999969	win	NaN	n/a	n/a	DD001.jpg	DD002.jpg
170.4905375	3.00125239999943	decision	1.53208149999955	left	S	SD019.jpg	SD020.jpg
174.039973499999	1.00005270000111	loss	NaN	n/a	n/a	SD019.jpg	SD020.jpg
180.973939199999	3.00074300000051	decision	1.28301520000059	left	D	DD031.jpg	DD032.jpg
184.523369499999	1.00005330000022	loss	NaN	n/a	n/a	DD031.jpg	DD032.jpg
189.340176099999	3.00159340000027	decision	1.5322795000011	left	S	SD005.jpg	SD006.jpg
192.8900569	1.00001379999958	win	NaN	n/a	n/a	SD005.jpg	SD006.jpg
195.6400598	3.00161759999901	decision	2.2836114999991	left	D	DD019.jpg	DD020.jpg
199.190023899999	1.00018420000015	win	NaN	n/a	n/a	DD019.jpg	DD020.jpg
206.1068724	3.00007299999925	decision	1.78201609999996	right	S	SD013.jpg	SD014.jpg
209.6566449	1.00009559999853	loss	NaN	n/a	n/a	SD013.jpg	SD014.jpg
216.5734921	3.00035380000008	decision	2.53325609999956	right	S	SD031.jpg	SD032.jpg
220.123711999999	1.01641050000035	loss	NaN	n/a	n/a	SD031.jpg	SD032.jpg
224.956763099999	3.00109940000038	decision	1.78326899999956	right	D	DD039.jpg	DD040.jpg
228.506742199999	1.01664410000012	loss	NaN	n/a	n/a	DD039.jpg	DD040.jpg
231.2567889	3.00151860000005	decision	2.28376719999869	left	D	DD005.jpg	DD006.jpg
234.8067018	1.01665619999949	loss	NaN	n/a	n/a	DD005.jpg	DD006.jpg
241.7570053	3.00137720000021	decision	1.78302729999996	right	S	SD037.jpg	SD038.jpg
245.306714099999	1.01659909999944	loss	NaN	n/a	n/a	SD037.jpg	SD038.jpg
248.040036	3.00246849999894	decision	2.54995989999952	right	S	SD039.jpg	SD040.jpg
251.590040899999	1.01663530000042	win	NaN	n/a	n/a	SD039.jpg	SD040.jpg
254.323382799999	3.00051510000048	decision	1.53314450000107	right	S	SD033.jpg	SD034.jpg
257.873336699999	1.01657100000011	loss	NaN	n/a	n/a	SD033.jpg	SD034.jpg
260.6233871	3.00128129999939	decision	2.03505679999944	left	D	DD013.jpg	DD014.jpg
264.1733403	1.01654219999909	win	NaN	n/a	n/a	DD013.jpg	DD014.jpg
269.0067411	3.00064509999902	decision	2.28313849999904	left	S	SD001.jpg	SD002.jpg
272.556656499999	1.0166491	win	NaN	n/a	n/a	SD001.jpg	SD002.jpg
275.306716999999	3.29965359999915	decision	3.29911240000001	left	D	DD003.jpg	DD004.jpg
279.1565978	1.01673469999878	win	NaN	n/a	n/a	DD003.jpg	DD004.jpg
283.9898156	3.00017239999943	decision	2.03303479999886	right	S	SD003.jpg	SD004.jpg
287.539871999999	1.00001739999971	win	NaN	n/a	n/a	SD003.jpg	SD004.jpg
294.456745399999	3.00092060000134	decision	1.53321959999994	left	D	DD025.jpg	DD026.jpg
298.006615	1.01662089999991	win	NaN	n/a	n/a	DD025.jpg	DD026.jpg
304.956662999999	3.00081870000031	decision	2.03225759999987	right	S	SD035.jpg	SD036.jpg
308.506625299999	1.00010980000116	win	NaN	n/a	n/a	SD035.jpg	SD036.jpg
311.2232912	3.00120889999926	decision	1.78263289999995	right	D	DD011.jpg	DD012.jpg
314.773205599999	1.00000830000135	loss	NaN	n/a	n/a	DD011.jpg	DD012.jpg
317.5066819	3.05000209999889	decision	3.04941509999844	left	S	SD021.jpg	SD022.jpg
321.106497299999	1.00000980000004	win	NaN	n/a	n/a	SD021.jpg	SD022.jpg
325.923290799999	3.00053130000015	decision	2.53304170000047	right	D	DD029.jpg	DD030.jpg
329.4732723	1.01653649999935	loss	NaN	n/a	n/a	DD029.jpg	DD030.jpg
