onset	duration	trial_type	rt	resp	gender	image_left	image_right
0.609192099887878	3.00201940000989	decision	1.78327640006319	left	D	DD017.jpg	DD018.jpg
4.15930589986965	1.01663010008633	loss	NaN	n/a	n/a	DD017.jpg	DD018.jpg
11.1256685999688	3.00148379988968	decision	2.28539129998535	left	D	DD035.jpg	DD036.jpg
14.6760453998577	1.00000890018418	win	NaN	n/a	n/a	DD035.jpg	DD036.jpg
21.6094651999883	3.00108239986002	decision	2.0331488000229	right	D	DD021.jpg	DD022.jpg
25.1594279999845	1.01689699990675	loss	NaN	n/a	n/a	DD021.jpg	DD022.jpg
32.1092268000357	3.00064999982715	decision	2.03251479985192	left	S	SD025.jpg	SD026.jpg
35.6592902999837	1.00004569999874	loss	NaN	n/a	n/a	SD025.jpg	SD026.jpg
38.3928274998907	3.00213390006684	decision	1.78294109995477	right	S	SD027.jpg	SD028.jpg
41.9426777998451	1.00020070001483	loss	NaN	n/a	n/a	SD027.jpg	SD028.jpg
44.6769216000102	3.00167369982228	decision	2.03170219995081	left	S	SD023.jpg	SD024.jpg
48.2263317999896	1.01673529995605	win	NaN	n/a	n/a	SD023.jpg	SD024.jpg
50.9764519999735	3.00174749991857	decision	2.53359839995392	left	D	DD037.jpg	DD038.jpg
54.526182099944	1.00020899996161	win	NaN	n/a	n/a	DD037.jpg	DD038.jpg
59.3598704000469	3.00095489993691	decision	2.28513649990782	left	S	SD011.jpg	SD012.jpg
62.9096959000453	1.00033079995774	loss	NaN	n/a	n/a	SD011.jpg	SD012.jpg
67.7431876999326	3.00090370001271	decision	2.30027880007401	left	D	DD009.jpg	DD010.jpg
71.2931400998496	1.00011760019697	win	NaN	n/a	n/a	DD009.jpg	DD010.jpg
74.0267693998758	3.00090870005079	decision	2.03331620013341	right	D	DD027.jpg	DD028.jpg
77.5765805998817	1.01633840007707	win	NaN	n/a	n/a	DD027.jpg	DD028.jpg
82.4428409000393	3.00101369991899	decision	2.28613329981454	right	D	DD015.jpg	DD016.jpg
85.9932520999573	1.01634659990668	loss	NaN	n/a	n/a	DD015.jpg	DD016.jpg
92.9433879000135	3.00089869997464	decision	2.55051029985771	right	S	SD029.jpg	SD030.jpg
96.4934829999693	1.01668970007449	loss	NaN	n/a	n/a	SD029.jpg	SD030.jpg
101.343493799912	3.00158470007591	decision	2.5500342999585	left	S	SD015.jpg	SD016.jpg
104.893180599902	1.00030330009758	win	NaN	n/a	n/a	SD015.jpg	SD016.jpg
111.826849599835	3.00144200003706	decision	1.78297230019234	right	S	SD007.jpg	SD008.jpg
115.376869600033	1.00013919989578	win	NaN	n/a	n/a	SD007.jpg	SD008.jpg
120.210223099915	3.00062629999593	decision	2.55047219991684	left	S	SD017.jpg	SD018.jpg
123.760397000005	1.01662319991738	win	NaN	n/a	n/a	SD017.jpg	SD018.jpg
126.510293199914	3.00110230012797	decision	2.79963749996386	left	D	DD033.jpg	DD034.jpg
130.060510399984	1.0165247998666	win	NaN	n/a	n/a	DD033.jpg	DD034.jpg
132.810540099861	3.0510240001604	decision	3.05045690014958	left	D	DD007.jpg	DD008.jpg
136.410756699974	1.01618859986775	loss	NaN	n/a	n/a	DD007.jpg	DD008.jpg
139.160407999996	3.00112370005809	decision	2.28533029998653	left	D	DD023.jpg	DD024.jpg
142.710441499949	1.01658629998565	loss	NaN	n/a	n/a	DD023.jpg	DD024.jpg
155.960960200056	3.00168709992431	decision	1.78264739993028	left	S	SD009.jpg	SD010.jpg
159.51060899999	1.01661930000409	loss	NaN	n/a	n/a	SD009.jpg	SD010.jpg
164.360670399852	3.00090280012228	decision	2.28327060001902	left	D	DD001.jpg	DD002.jpg
167.910563699901	1.0002735001035	win	NaN	n/a	n/a	DD001.jpg	DD002.jpg
170.660902800038	3.00152479996905	decision	2.79997169994749	left	S	SD019.jpg	SD020.jpg
174.210969799897	1.01635379996151	loss	NaN	n/a	n/a	SD019.jpg	SD020.jpg
181.160940999864	3.00157680013217	decision	2.28356260014698	left	D	DD031.jpg	DD032.jpg
184.710769699886	1.00038570002653	loss	NaN	n/a	n/a	DD031.jpg	DD032.jpg
189.544464699924	3.00062529998831	decision	2.30002339999191	left	S	SD005.jpg	SD006.jpg
193.094154699938	1.00005539995618	win	NaN	n/a	n/a	SD005.jpg	SD006.jpg
195.844707599841	3.00127880019136	decision	2.54987500002608	left	D	DD019.jpg	DD020.jpg
199.394549899967	1.016326099867	win	NaN	n/a	n/a	DD019.jpg	DD020.jpg
206.344693299849	3.00051180017181	decision	2.79877330013551	left	S	SD013.jpg	SD014.jpg
209.894596399972	1.01669569988735	loss	NaN	n/a	n/a	SD013.jpg	SD014.jpg
216.844875999959	3.00048659997992	decision	2.28200819995254	right	S	SD031.jpg	SD032.jpg
220.394619199913	1.01656750007533	loss	NaN	n/a	n/a	SD031.jpg	SD032.jpg
225.24500450003	3.00120179983787	decision	2.5495894998312	left	D	DD039.jpg	DD040.jpg
228.794745999854	1.01635839999653	loss	NaN	n/a	n/a	DD039.jpg	DD040.jpg
231.561193999834	3.00072570005432	decision	2.55011030007154	right	D	DD005.jpg	DD006.jpg
235.111280799843	1.00020320015028	loss	NaN	n/a	n/a	DD005.jpg	DD006.jpg
242.044740299927	3.00211520004086	decision	1.53282080008648	left	S	SD037.jpg	SD038.jpg
245.594741199864	1.00024250010028	loss	NaN	n/a	n/a	SD037.jpg	SD038.jpg
248.328189499909	3.00174099998549	decision	2.03386620013043	left	S	SD039.jpg	SD040.jpg
251.877926799934	1.00040009990335	win	NaN	n/a	n/a	SD039.jpg	SD040.jpg
254.611809999915	3.00215309998021	decision	2.54880390013568	left	S	SD033.jpg	SD034.jpg
258.161673899973	1.00005510007031	loss	NaN	n/a	n/a	SD033.jpg	SD034.jpg
260.894839799963	3.0007366000209	decision	2.55006709997542	left	D	DD013.jpg	DD014.jpg
264.44493509992	1.00016249995679	win	NaN	n/a	n/a	DD013.jpg	DD014.jpg
269.261695999885	3.00123569997959	decision	2.03247960004956	right	S	SD001.jpg	SD002.jpg
272.811790799955	0.999999499879777	win	NaN	n/a	n/a	SD001.jpg	SD002.jpg
275.545454300009	3.00098559982143	decision	2.79944620002061	right	D	DD003.jpg	DD004.jpg
279.095203399891	1.00002120016143	win	NaN	n/a	n/a	DD003.jpg	DD004.jpg
283.928634600015	3.00240479991771	decision	2.28271809988655	left	S	SD003.jpg	SD004.jpg
287.478493100032	1.00019009993412	win	NaN	n/a	n/a	SD003.jpg	SD004.jpg
294.412160299951	3.00111529999413	decision	2.55012440006249	left	D	DD025.jpg	DD026.jpg
297.962114599999	1.01660600001924	win	NaN	n/a	n/a	DD025.jpg	DD026.jpg
304.912310600048	3.00196169991978	decision	2.28388089989312	right	S	SD035.jpg	SD036.jpg
308.462160700001	1.00002190005034	win	NaN	n/a	n/a	SD035.jpg	SD036.jpg
311.195659499848	3.0009312001057	decision	2.55029480019584	left	D	DD011.jpg	DD012.jpg
314.745770599926	1.0161043999251	loss	NaN	n/a	n/a	DD011.jpg	DD012.jpg
317.495753400028	3.00186709989794	decision	1.78331159986556	left	S	SD021.jpg	SD022.jpg
321.045281199971	1.00010129995644	win	NaN	n/a	n/a	SD021.jpg	SD022.jpg
325.879121999955	2.99990439997055	decision	2.03303360007703	left	D	DD029.jpg	DD030.jpg
329.428764599841	1.00035900017247	loss	NaN	n/a	n/a	DD029.jpg	DD030.jpg
