onset	duration	trial_type	rt	resp	gender	image_left	image_right
0.651742300018668	3.00134769990109	decision	1.53210940002464	left	F	FF017.jpg	FF018.jpg
4.20135130011477	1.00012520002201	loss	NaN	n/a	n/a	FF017.jpg	FF018.jpg
11.1849970999174	3.00008310005069	decision	1.78225250006653	right	F	FF035.jpg	FF036.jpg
14.7348818001337	1.01679479982704	win	NaN	n/a	n/a	FF035.jpg	FF036.jpg
21.7183604000602	3.00093999993987	decision	2.03406199999154	left	F	FF021.jpg	FF022.jpg
25.2681887999643	1.00020590005443	loss	NaN	n/a	n/a	FF021.jpg	FF022.jpg
32.2351923999377	3.00129240006208	decision	2.28368570003659	right	M	MF025.jpg	MF026.jpg
35.7852197000757	1.0163308000192	loss	NaN	n/a	n/a	MF025.jpg	MF026.jpg
38.5686027000193	3.0023221001029	decision	2.03355340007693	left	M	MF027.jpg	MF028.jpg
42.1186866001226	1.01632709987462	loss	NaN	n/a	n/a	MF027.jpg	MF028.jpg
44.9020031001419	3.00095429993235	decision	2.0332392998971	right	M	MF023.jpg	MF024.jpg
48.451778100105	1.00007999991067	win	NaN	n/a	n/a	MF023.jpg	MF024.jpg
51.2185373001266	3.00045369984582	decision	2.29911139979959	left	F	FF037.jpg	FF038.jpg
54.7688301000744	1.01634159986861	win	NaN	n/a	n/a	FF037.jpg	FF038.jpg
59.651874900097	3.00114870001562	decision	2.03283019992523	right	M	MF011.jpg	MF012.jpg
63.2018778000493	1.00022380007431	loss	NaN	n/a	n/a	MF011.jpg	MF012.jpg
68.0687675999943	3.00035870005377	decision	2.03236660012044	right	F	FF009.jpg	FF010.jpg
71.6189159001224	1.01666829991154	win	NaN	n/a	n/a	FF009.jpg	FF010.jpg
74.4022993999533	3.00138960010372	decision	2.29886190011166	right	F	FF027.jpg	FF028.jpg
77.9520751999225	1.0167145000305	win	NaN	n/a	n/a	FF027.jpg	FF028.jpg
82.8356775001157	3.00090889981948	decision	2.03229809994809	left	F	FF015.jpg	FF016.jpg
86.3857736999635	1.01631370000541	loss	NaN	n/a	n/a	FF015.jpg	FF016.jpg
93.3691678000614	3.00091829989105	decision	1.78226720006205	right	M	MF029.jpg	MF030.jpg
96.9190170001239	1.01659589982592	loss	NaN	n/a	n/a	MF029.jpg	MF030.jpg
101.802488000132	3.00112359994091	decision	1.78303859988227	right	M	MF015.jpg	MF016.jpg
105.352582399966	1.01658340007998	win	NaN	n/a	n/a	MF015.jpg	MF016.jpg
112.336019299924	3.00135100004263	decision	1.78246710007079	right	M	MF007.jpg	MF008.jpg
115.885978500126	1.00001869979315	win	NaN	n/a	n/a	MF007.jpg	MF008.jpg
120.752452000044	3.00167039991356	decision	2.03417330002412	right	M	MF017.jpg	MF018.jpg
124.302740999963	1.01651600003242	win	NaN	n/a	n/a	MF017.jpg	MF018.jpg
127.085976300063	3.00122369988821	decision	2.28393510007299	left	F	FF033.jpg	FF034.jpg
130.636113400105	1.01671410002746	win	NaN	n/a	n/a	FF033.jpg	FF034.jpg
133.419628200121	3.00159919983707	decision	2.03424179996364	left	F	FF007.jpg	FF008.jpg
136.96952709998	1.00001590000466	loss	NaN	n/a	n/a	FF007.jpg	FF008.jpg
139.735876700142	3.00139969983138	decision	2.28301279991865	left	F	FF023.jpg	FF024.jpg
143.286339600105	1.01654839981347	loss	NaN	n/a	n/a	FF023.jpg	FF024.jpg
156.569630299928	3.00162019999698	decision	2.28454680019058	left	M	MF009.jpg	MF010.jpg
160.119669399923	1.01666340022348	loss	NaN	n/a	n/a	MF009.jpg	MF010.jpg
165.003188299946	3.00114090018906	decision	2.0327016999945	left	F	FF001.jpg	FF002.jpg
168.55320840003	1.0000189000275	win	NaN	n/a	n/a	FF001.jpg	FF002.jpg
171.319679100066	3.00121999997646	decision	2.03370109992102	right	M	MF019.jpg	MF020.jpg
174.869917500066	1.01644370006397	loss	NaN	n/a	n/a	MF019.jpg	MF020.jpg
181.853260200005	3.00166060007177	decision	2.03372150007635	right	F	FF031.jpg	FF032.jpg
185.403303400148	1.01666849991307	loss	NaN	n/a	n/a	FF031.jpg	FF032.jpg
190.28681640001	3.00155239994638	decision	2.0346264000982	right	M	MF005.jpg	MF006.jpg
193.836572000058	1.01683410000987	win	NaN	n/a	n/a	MF005.jpg	MF006.jpg
196.620135199977	3.0002854000777	decision	1.78209720016457	left	F	FF019.jpg	FF020.jpg
200.170065300073	1.00004499987699	win	NaN	n/a	n/a	FF019.jpg	FF020.jpg
207.136943500023	3.00093430001289	decision	2.03362450003624	left	M	MF013.jpg	MF014.jpg
210.686819100054	1.00008750008419	loss	NaN	n/a	n/a	MF013.jpg	MF014.jpg
217.653323099948	3.00121550005861	decision	2.03387240017764	right	M	MF031.jpg	MF032.jpg
221.203423100058	1.0005145999603	loss	NaN	n/a	n/a	MF031.jpg	MF032.jpg
226.070278299972	3.00086250016466	decision	2.03408779995516	right	F	FF039.jpg	FF040.jpg
229.620560300071	1.01651389990002	loss	NaN	n/a	n/a	FF039.jpg	FF040.jpg
232.403834700119	3.00018219999038	decision	2.30004529980943	right	F	FF005.jpg	FF006.jpg
235.953871800099	1.01630429993384	loss	NaN	n/a	n/a	FF005.jpg	FF006.jpg
242.937025600113	3.00222719996236	decision	2.55065150000155	right	M	MF037.jpg	MF038.jpg
246.4873389001	1.01653139991686	loss	NaN	n/a	n/a	MF037.jpg	MF038.jpg
249.27077780012	3.00122849992476	decision	2.2841442998033	right	M	MF039.jpg	MF040.jpg
252.820612899959	1.00000560004264	win	NaN	n/a	n/a	MF039.jpg	MF040.jpg
255.587003800087	3.00035530002788	decision	2.55027069989592	left	M	MF033.jpg	MF034.jpg
259.137376799947	1.01617459999397	loss	NaN	n/a	n/a	MF033.jpg	MF034.jpg
261.920689800056	3.00158039992675	decision	2.28375230007805	right	F	FF013.jpg	FF014.jpg
265.470775000053	1.01642560004257	win	NaN	n/a	n/a	FF013.jpg	FF014.jpg
270.35428440012	3.00155789987184	decision	2.28532779985107	left	M	MF001.jpg	MF002.jpg
273.90415980015	1.01667609997094	win	NaN	n/a	n/a	MF001.jpg	MF002.jpg
276.687210300006	3.00213479995728	decision	2.29897270002402	left	F	FF003.jpg	FF004.jpg
280.237547500059	1.0166537000332	win	NaN	n/a	n/a	FF003.jpg	FF004.jpg
285.120811800007	3.00138600007631	decision	2.28331810003147	left	M	MF003.jpg	MF004.jpg
288.670952700078	1.01680069998838	win	NaN	n/a	n/a	MF003.jpg	MF004.jpg
295.654718799982	3.00048699998297	decision	2.29953470011242	left	F	FF025.jpg	FF026.jpg
299.204267499968	1.00009520002641	win	NaN	n/a	n/a	FF025.jpg	FF026.jpg
306.171282400144	3.00108629977331	decision	2.03342569991946	left	M	MF035.jpg	MF036.jpg
309.721098500071	1.0166704999283	win	NaN	n/a	n/a	MF035.jpg	MF036.jpg
312.504542300012	3.00027190009132	decision	2.30021760007367	right	F	FF011.jpg	FF012.jpg
316.05440010014	0.999994399957359	loss	NaN	n/a	n/a	FF011.jpg	FF012.jpg
318.820930900052	3.00187340006232	decision	2.55084550008178	left	M	MF021.jpg	MF022.jpg
322.370954999933	1.00058430014178	win	NaN	n/a	n/a	MF021.jpg	MF022.jpg
327.238092700019	3.00146450009197	decision	1.78261450002901	right	F	FF029.jpg	FF030.jpg
330.78780489997	1.01690270006657	loss	NaN	n/a	n/a	FF029.jpg	FF030.jpg
