onset	duration	trial_type	rt	resp	gender	image_left	image_right
0.598441899986938	3.00167219992727	decision	1.78254549996927	left	S	SD001.jpg	SD002.jpg
4.14855269994587	1.01660560001619	win	NaN	n/a	n/a	SD001.jpg	SD002.jpg
11.0819312999956	3.0013753999956	decision	2.03371200012043	right	S	SD003.jpg	SD004.jpg
14.631820099894	1.0163593001198	loss	NaN	n/a	n/a	SD003.jpg	SD004.jpg
17.3654400000814	3.0010940998327	decision	2.53317640000023	left	S	SD005.jpg	SD006.jpg
20.9151089000516	1.00007489998825	win	NaN	n/a	n/a	SD005.jpg	SD006.jpg
23.6484676001128	3.00101149990223	decision	2.28234909987077	right	D	DD001.jpg	DD002.jpg
27.1985126999207	1.01686960016377	win	NaN	n/a	n/a	DD001.jpg	DD002.jpg
32.0484027001075	3.00106569984928	decision	2.53627929999493	right	D	DD003.jpg	DD004.jpg
35.5994494999759	1.01556110009551	loss	NaN	n/a	n/a	DD003.jpg	DD004.jpg
42.531728599919	3.00086929998361	decision	2.03265390009619	right	S	SD007.jpg	SD008.jpg
46.0816736998968	1.00009170011617	loss	NaN	n/a	n/a	SD007.jpg	SD008.jpg
50.9152355000842	3.00156180001795	decision	2.53361669997685	right	S	SD009.jpg	SD010.jpg
54.465210699942	1.00024570012465	win	NaN	n/a	n/a	SD009.jpg	SD010.jpg
59.3151322999038	3.00121850008145	decision	2.2821789002046	left	D	DD005.jpg	DD006.jpg
62.8651332000736	1.00006740004756	loss	NaN	n/a	n/a	DD005.jpg	DD006.jpg
65.598447999917	3.00038500013761	decision	2.28426009998657	right	D	DD007.jpg	DD008.jpg
69.1483634999022	1.00005970010534	win	NaN	n/a	n/a	DD007.jpg	DD008.jpg
71.881727400003	3.00064240000211	decision	2.28320599999279	left	D	DD009.jpg	DD010.jpg
75.4323249999434	1.00053590000607	win	NaN	n/a	n/a	DD009.jpg	DD010.jpg
78.1651637000032	3.00156380003318	decision	2.03365690005012	left	D	DD011.jpg	DD012.jpg
81.715030600084	1.01684129983187	loss	NaN	n/a	n/a	DD011.jpg	DD012.jpg
86.5653639000375	3.0005119999405	decision	2.53413599985652	left	S	SD011.jpg	SD012.jpg
90.1151306000538	1.01657179999165	loss	NaN	n/a	n/a	SD011.jpg	SD012.jpg
92.8484342999291	3.0013987000566	decision	1.78353350004181	right	S	SD013.jpg	SD014.jpg
96.3993846999947	1.01578740007244	win	NaN	n/a	n/a	SD013.jpg	SD014.jpg
103.331728199963	3.00079670012929	decision	2.0330112001393	left	S	SD015.jpg	SD016.jpg
106.88170300005	1.01672469987534	win	NaN	n/a	n/a	SD015.jpg	SD016.jpg
109.631710699992	3.00012960005552	decision	2.55016750004143	right	D	DD013.jpg	DD014.jpg
113.18171350006	1.00005509983748	win	NaN	n/a	n/a	DD013.jpg	DD014.jpg
120.115123100113	3.00065259984694	decision	2.03241169988178	right	S	SD017.jpg	SD018.jpg
123.664980800124	1.0166582998354	win	NaN	n/a	n/a	SD017.jpg	SD018.jpg
128.531780200079	3.00065819988959	decision	2.79913239995949	right	D	DD015.jpg	DD016.jpg
132.081749799894	1.01664150017314	win	NaN	n/a	n/a	DD015.jpg	DD016.jpg
136.964813299943	3.05023819999769	decision	3.04969070013613	left	S	SD019.jpg	SD020.jpg
140.564999799943	1.01670010015368	win	NaN	n/a	n/a	SD019.jpg	SD020.jpg
145.398404499982	3.00135460007004	decision	2.03335079993121	right	D	DD017.jpg	DD018.jpg
148.948336600093	1.00006789993495	win	NaN	n/a	n/a	DD017.jpg	DD018.jpg
162.181789800059	3.00182959996164	decision	2.28289469983429	left	S	SD021.jpg	SD022.jpg
165.731706799939	1.00016360008158	loss	NaN	n/a	n/a	SD021.jpg	SD022.jpg
172.648699099896	3.00014870008454	decision	2.28319050022401	right	S	SD023.jpg	SD024.jpg
176.198479099898	1.00114160007797	win	NaN	n/a	n/a	SD023.jpg	SD024.jpg
183.114902900066	3.00007779989392	decision	2.03307699994184	right	S	SD025.jpg	SD026.jpg
186.664904400008	1.01675709988922	loss	NaN	n/a	n/a	SD025.jpg	SD026.jpg
191.514886199962	3.00146970013157	decision	1.5330479000695	left	S	SD027.jpg	SD028.jpg
195.064897899982	1.01686790003441	loss	NaN	n/a	n/a	SD027.jpg	SD028.jpg
197.831932700006	3.00181229994632	decision	2.28268199996091	left	D	DD019.jpg	DD020.jpg
201.381676099962	1.01661460008472	loss	NaN	n/a	n/a	DD019.jpg	DD020.jpg
204.1315436	3.00114720012061	decision	2.79995310003869	left	D	DD021.jpg	DD022.jpg
207.681706400122	1.01650429982692	win	NaN	n/a	n/a	DD021.jpg	DD022.jpg
214.631645699963	3.0010714000091	decision	2.03307240013964	right	S	SD029.jpg	SD030.jpg
218.181595399976	1.0163241000846	loss	NaN	n/a	n/a	SD029.jpg	SD030.jpg
225.114846300101	3.00110289989971	decision	2.03263339982368	left	S	SD031.jpg	SD032.jpg
228.66484360001	1.01667959988117	win	NaN	n/a	n/a	SD031.jpg	SD032.jpg
233.498333600117	3.00156989996321	decision	1.78343009995297	right	D	DD023.jpg	DD024.jpg
237.048416800098	1.01614780002274	loss	NaN	n/a	n/a	DD023.jpg	DD024.jpg
239.781683899928	3.00120569998398	decision	2.53305970015936	right	D	DD025.jpg	DD026.jpg
243.331487500109	1.0002358998172	win	NaN	n/a	n/a	DD025.jpg	DD026.jpg
248.148316900013	3.00140649988316	decision	1.78358520008624	left	D	DD027.jpg	DD028.jpg
251.698157900013	1.00029859994538	loss	NaN	n/a	n/a	DD027.jpg	DD028.jpg
254.414903800003	3.0016512000002	decision	1.78264630003832	left	S	SD033.jpg	SD034.jpg
257.966151300119	1.01560589997098	loss	NaN	n/a	n/a	SD033.jpg	SD034.jpg
260.714873899939	3.00204070005566	decision	2.5336474000942	left	S	SD035.jpg	SD036.jpg
264.264773499919	1.00028340006247	loss	NaN	n/a	n/a	SD035.jpg	SD036.jpg
266.998203899944	3.00162820005789	decision	2.2836518001277	left	S	SD037.jpg	SD038.jpg
270.548230000073	1.01652359985746	win	NaN	n/a	n/a	SD037.jpg	SD038.jpg
277.498149499996	3.00178930000402	decision	2.28278480004519	right	D	DD029.jpg	DD030.jpg
281.048094599973	1.00003010011278	loss	NaN	n/a	n/a	DD029.jpg	DD030.jpg
283.781691800104	3.0007859999314	decision	1.53319179988466	left	D	DD031.jpg	DD032.jpg
287.331497000065	1.01664129993878	loss	NaN	n/a	n/a	DD031.jpg	DD032.jpg
292.181567199994	3.00124000012875	decision	2.78454359993339	right	D	DD033.jpg	DD034.jpg
295.731402999954	1.00016560009681	win	NaN	n/a	n/a	DD033.jpg	DD034.jpg
302.664808799978	3.00124570005573	decision	2.28285089996643	right	S	SD039.jpg	SD040.jpg
306.214667400112	1.00003999983892	loss	NaN	n/a	n/a	SD039.jpg	SD040.jpg
313.148132500006	3.00093619991094	decision	1.5324421999976	left	D	DD035.jpg	DD036.jpg
316.698331800057	1.01664689998142	win	NaN	n/a	n/a	DD035.jpg	DD036.jpg
319.448100500042	3.00185059988871	decision	2.03382409992628	left	D	DD037.jpg	DD038.jpg
323.00222470006	1.01246050000191	loss	NaN	n/a	n/a	DD037.jpg	DD038.jpg
325.748228200013	3.00087459990755	decision	2.5338969998993	right	D	DD039.jpg	DD040.jpg
329.298134899931	1.00006300001405	loss	NaN	n/a	n/a	DD039.jpg	DD040.jpg
