onset	duration	trial_type	rt	resp	gender	image_left	image_right
0.649695700005395	3.03711269999621	decision-missed	n/a	n/a	M	MF001.jpg	MF002.jpg
4.23315980000189	1.01649169999291	win	n/a	n/a	n/a	MF001.jpg	MF002.jpg
11.2166015999974	3.03610399999889	decision-missed	n/a	n/a	M	MF003.jpg	MF004.jpg
14.7998690000095	1.00122889998602	loss	n/a	n/a	n/a	MF003.jpg	MF004.jpg
17.5499685000104	3.00177840000833	decision	2.5377413999813143	left	M	MF005.jpg	MF006.jpg
21.0998672000133	1.00018169998657	win	n/a	n/a	n/a	MF005.jpg	MF006.jpg
23.8666623000172	3.00142069999129	decision	2.033914499974344	left	F	FF001.jpg	FF002.jpg
27.4165876000188	1.01670319997356	win	n/a	n/a	n/a	FF001.jpg	FF002.jpg
32.2835063000093	3.00122639999609	decision	1.7833352999878116	left	F	FF003.jpg	FF004.jpg
35.8343548999983	1.01594549999572	loss	n/a	n/a	n/a	FF003.jpg	FF004.jpg
42.8002392000053	3.00089759999537	decision	1.783413400000427	left	M	MF007.jpg	MF008.jpg
46.3505786000169	1.01636829998461	loss	n/a	n/a	n/a	MF007.jpg	MF008.jpg
51.2169083000044	3.00114820001181	decision	2.032595800003037	left	M	MF009.jpg	MF010.jpg
54.7672919000033	1.00053849999676	win	n/a	n/a	n/a	MF009.jpg	MF010.jpg
59.617044100014	3.00171309997677	decision	1.533768199995393	right	F	FF005.jpg	FF006.jpg
63.1671630000055	1.01647289999528	loss	n/a	n/a	n/a	FF005.jpg	FF006.jpg
65.9337095000083	3.03445800000918	decision-missed	n/a	n/a	F	FF007.jpg	FF008.jpg
69.5172197000065	1.01649189999443	win	n/a	n/a	n/a	FF007.jpg	FF008.jpg
72.2838862999924	3.00103590000072	decision	1.5330929000047036	left	F	FF009.jpg	FF010.jpg
75.8349429999944	1.01569260001997	win	n/a	n/a	n/a	FF009.jpg	FF010.jpg
78.6005405000178	3.00205079998705	decision	1.5325942999916151	right	F	FF011.jpg	FF012.jpg
82.1506579999987	1.00012250000145	loss	n/a	n/a	n/a	FF011.jpg	FF012.jpg
87.0006059000152	3.00106549999327	decision	1.7830004999996163	right	M	MF011.jpg	MF012.jpg
90.5506671000039	1.01688780001132	loss	n/a	n/a	n/a	MF011.jpg	MF012.jpg
93.3174768000026	3.00215869999374	decision	1.7838882000069134	right	M	MF013.jpg	MF014.jpg
96.8678396000178	1.01646919999621	win	n/a	n/a	n/a	MF013.jpg	MF014.jpg
103.834251599998	3.00156160001643	decision	1.2832236000103876	right	M	MF015.jpg	MF016.jpg
107.3842534	1.01666340001975	win	n/a	n/a	n/a	MF015.jpg	MF016.jpg
110.150956800004	3.0012318000081	decision	2.0326357999874745	left	F	FF013.jpg	FF014.jpg
113.701274199993	1.01632660001633	win	n/a	n/a	n/a	FF013.jpg	FF014.jpg
120.66774200002	3.00116609997349	decision	1.782663899997715	right	M	MF017.jpg	MF018.jpg
124.217774799996	1.01666240001214	win	n/a	n/a	n/a	MF017.jpg	MF018.jpg
129.084475600015	3.00096149998717	decision	2.534083799982909	left	F	FF015.jpg	FF016.jpg
132.634451999998	1.00007360000745	win	n/a	n/a	n/a	FF015.jpg	FF016.jpg
137.484700900008	3.04959969999618	decision	3.049020100006601	right	M	MF019.jpg	MF020.jpg
141.084631100006	1.016612300009	win	n/a	n/a	n/a	MF019.jpg	MF020.jpg
145.951302300004	3.00117179998779	decision	2.282540899992455	left	F	FF017.jpg	FF018.jpg
149.501479300001	1.01655349999783	win	n/a	n/a	n/a	FF017.jpg	FF018.jpg
162.768305400008	3.0006030999939	decision	1.533104700007243	right	M	MF021.jpg	MF022.jpg
166.318103400001	1.00037580000935	loss	n/a	n/a	n/a	MF021.jpg	MF022.jpg
173.268363500014	3.03627529999358	decision-missed	n/a	n/a	M	MF023.jpg	MF024.jpg
176.852222000016	1.01612169999862	win	n/a	n/a	n/a	MF023.jpg	MF024.jpg
183.818440600007	3.00202879999415	decision	1.7827344000106677	left	M	MF025.jpg	MF026.jpg
187.368582900002	1.01652189999004	loss	n/a	n/a	n/a	MF025.jpg	MF026.jpg
192.235312100005	3.00085300000501	decision	1.783284500008449	right	M	MF027.jpg	MF028.jpg
195.785322200012	1.00031030000537	loss	n/a	n/a	n/a	MF027.jpg	MF028.jpg
198.552158900013	3.00088549999055	decision	1.2823120999964885	right	F	FF019.jpg	FF020.jpg
202.102132300002	1.01644480001414	loss	n/a	n/a	n/a	FF019.jpg	FF020.jpg
204.868662499997	3.00098670000443	decision	1.5325105999945663	left	F	FF021.jpg	FF022.jpg
208.418650000007	1.01664739998523	win	n/a	n/a	n/a	FF021.jpg	FF022.jpg
215.385546100006	3.00147769998875	decision	1.2825253999908455	right	M	MF029.jpg	MF030.jpg
218.935547300003	1.01655229998869	loss	n/a	n/a	n/a	MF029.jpg	MF030.jpg
225.902321700007	3.0351163999876	decision-missed	n/a	n/a	M	MF031.jpg	MF032.jpg
229.485446200008	1.00009499999578	win	n/a	n/a	n/a	MF031.jpg	MF032.jpg
234.352215499996	3.001540199999	decision	1.7836567000194918	left	F	FF023.jpg	FF024.jpg
237.902847699996	1.01605310000014	loss	n/a	n/a	n/a	FF023.jpg	FF024.jpg
240.669088099996	3.00120840000454	decision	1.0322033000120427	right	F	FF025.jpg	FF026.jpg
244.218947300018	1.00008049997268	win	n/a	n/a	n/a	FF025.jpg	FF026.jpg
249.069334100001	3.00232259999029	decision	1.532944900012808	right	F	FF027.jpg	FF028.jpg
252.619294400007	1.01650040000095	loss	n/a	n/a	n/a	FF027.jpg	FF028.jpg
255.386116400012	3.00092580000637	decision	1.2823768999951426	right	M	MF033.jpg	MF034.jpg
258.935925600003	1.00016990001313	loss	n/a	n/a	n/a	MF033.jpg	MF034.jpg
261.702529800008	3.00166629999876	decision	1.2826055999903474	left	M	MF035.jpg	MF036.jpg
265.252526900003	1.00012069998775	loss	n/a	n/a	n/a	MF035.jpg	MF036.jpg
268.002689200017	3.00133879997884	decision	1.0337488999939524	left	M	MF037.jpg	MF038.jpg
271.552601500007	1.00004809998791	win	n/a	n/a	n/a	MF037.jpg	MF038.jpg
278.503585900005	3.001491300005	decision	1.0318957999988925	right	F	FF029.jpg	FF030.jpg
282.05274720001	1.00029009999707	loss	n/a	n/a	n/a	FF029.jpg	FF030.jpg
284.819464800006	3.03792319999775	decision-missed	n/a	n/a	F	FF031.jpg	FF032.jpg
288.402839499991	1.00027330001467	loss	n/a	n/a	n/a	FF031.jpg	FF032.jpg
293.252948900015	3.00079859999823	decision	1.2830201000033412	left	F	FF033.jpg	FF034.jpg
296.803275300015	1.00033489998896	win	n/a	n/a	n/a	FF033.jpg	FF034.jpg
303.753163400019	3.00120809997316	decision	1.2831798999977764	right	M	MF039.jpg	MF040.jpg
307.303059800004	1.01658060000045	loss	n/a	n/a	n/a	MF039.jpg	MF040.jpg
314.269872000004	3.00064980000025	decision	1.5331927000079304	left	F	FF035.jpg	FF036.jpg
317.819996900012	1.00082309998106	win	n/a	n/a	n/a	FF035.jpg	FF036.jpg
320.569906699995	3.00167930001044	decision	2.5336795000184793	left	F	FF037.jpg	FF038.jpg
324.119872400013	1.00002599999425	loss	n/a	n/a	n/a	FF037.jpg	FF038.jpg
326.869900799997	3.00111410001409	decision	1.0331679999944754	right	F	FF039.jpg	FF040.jpg
330.419927700015	1.00031849998049	loss	n/a	n/a	n/a	FF039.jpg	FF040.jpg
